time,seconds_elapsed,z,y,x
1716758419470882800,0.1108828125,0.2566559314727783,0.14585018157958984,0.020481936633586884
1716758419480855800,0.120855712890625,0.25873565673828125,0.1450653076171875,0.019666530191898346
1716758419490868700,0.13086865234375,0.2604248523712158,0.14442920684814453,0.019010700285434723
1716758419500875300,0.140875244140625,0.261765718460083,0.1439208984375,0.018464170396327972
1716758419510879500,0.15087939453125,0.2683603763580322,0.14137840270996094,0.02253945916891098
1716758419520883000,0.160883056640625,0.2743873596191406,0.1390695571899414,0.02436491847038269
1716758419530885400,0.170885498046875,0.2788536548614502,0.13738346099853516,0.023784197866916656
1716758419540889900,0.180889892578125,0.28109240531921387,0.13656139373779297,0.021162904798984528
1716758419550891800,0.190891845703125,0.28133320808410645,0.1365070343017578,0.01773468405008316
1716758419560893400,0.2008935546875,0.28031373023986816,0.1369190216064453,0.015266545116901398
1716758419570894800,0.210894775390625,0.27930212020874023,0.13730239868164062,0.015163667500019073
1716758419580896300,0.220896240234375,0.2791571617126465,0.13733673095703125,0.016742751002311707
1716758419590897700,0.230897705078125,0.28057169914245605,0.13678646087646484,0.018638938665390015
1716758419600898600,0.240898681640625,0.2838759422302246,0.13553142547607422,0.019452013075351715
1716758419610899700,0.250899658203125,0.2882230281829834,0.13389873504638672,0.0188017338514328
1716758419620900600,0.260900634765625,0.29181599617004395,0.13256359100341797,0.016856439411640167
1716758419630901500,0.270901611328125,0.29407644271850586,0.1317424774169922,0.013741232454776764
1716758419640902100,0.280902099609375,0.29457664489746094,0.1315898895263672,0.010415010154247284
1716758419650903300,0.2909033203125,0.2926909923553467,0.13233089447021484,0.007657527923583984
1716758419660904200,0.300904296875,0.28793764114379883,0.13413619995117188,0.006439678370952606
1716758419670904800,0.31090478515625,0.2807340621948242,0.13684463500976562,0.0073208436369895935
1716758419680905500,0.320905517578125,0.2727162837982178,0.13985919952392578,0.009930737316608429
1716758419690906000,0.330906005859375,0.26555633544921875,0.14253520965576172,0.013492226600646973
1716758419700906800,0.34090673828125,0.2604513168334961,0.14443588256835938,0.017089955508708954
1716758419710907100,0.3509072265625,0.25793957710266113,0.1453704833984375,0.019723229110240936
1716758419720907800,0.36090771484375,0.2580902576446533,0.14528751373291016,0.021658875048160553
1716758419730908400,0.370908447265625,0.26078081130981445,0.14424991607666016,0.022718317806720734
1716758419740908800,0.38090869140625,0.26584291458129883,0.14232730865478516,0.022438623011112213
1716758419750909200,0.3909091796875,0.27233052253723145,0.1398792266845703,0.02133271098136902
1716758419760909800,0.400909912109375,0.27952003479003906,0.13717365264892578,0.019400283694267273
1716758419770910200,0.41091015625,0.28680896759033203,0.13444042205810547,0.017361178994178772
1716758419780910600,0.42091064453125,0.2940804958343506,0.13170623779296875,0.016384735703468323
1716758419790911000,0.430910888671875,0.30158281326293945,0.12889385223388672,0.01615998148918152
1716758419800911000,0.4409111328125,0.30945920944213867,0.1259326934814453,0.01663988083600998
1716758419810911000,0.450910888671875,0.31821131706237793,0.12264442443847656,0.01776859164237976
1716758419820911000,0.4609111328125,0.326815128326416,0.1194305419921875,0.01893734186887741
1716758419830911000,0.470910888671875,0.3342885971069336,0.11664009094238281,0.020037122070789337
1716758419840910600,0.48091064453125,0.340085506439209,0.11446762084960938,0.021057695150375366
1716758419850910700,0.49091064453125,2.6637918949127197,-1.383176326751709,-1.400541067123413
1716758419860910600,0.50091064453125,2.8515477180480957,-1.4003047943115234,-1.3530700206756592
1716758419870910700,0.51091064453125,3.0344719886779785,-1.385396957397461,-1.3998104333877563
1716758419880910600,0.52091064453125,3.1250569820404053,-1.4059109687805176,-1.4193460941314697
1716758419890910500,0.530910400390625,3.128060817718506,-1.4483461380004883,-1.5091114044189453
1716758419900910800,0.540910888671875,3.160339832305908,-1.422471523284912,-1.5905687808990479
1716758419910910700,0.55091064453125,3.072169065475464,-1.3741459846496582,-1.5808709859848022
1716758419920910300,0.560910400390625,2.940739870071411,-1.33469820022583,-1.5188103914260864
1716758419930910500,0.570910400390625,2.7993264198303223,-1.3279752731323242,-1.4622987508773804
1716758419940910300,0.580910400390625,2.704895496368408,-1.3154449462890625,-1.5267125368118286
1716758419950910200,0.59091015625,2.6514782905578613,-1.3373832702636719,-1.6205466985702515
1716758419960910000,0.60091015625,2.622899293899536,-1.33323335647583,-1.599831461906433
1716758419970910200,0.61091015625,2.5980682373046875,-1.3645682334899902,-1.5194693803787231
1716758419980910000,0.62091015625,2.620725631713867,-1.4068317413330078,-1.4924261569976807
1716758419990910200,0.63091015625,2.6355528831481934,-1.3905024528503418,-1.521419644355774
1716758420000910600,0.64091064453125,2.66009783744812,-1.3087220191955566,-1.5456541776657104
1716758420010910700,0.65091064453125,2.7274959087371826,-1.2882390022277832,-1.4952759742736816
1716758420020910600,0.66091064453125,2.827974796295166,-1.2835187911987305,-1.4383163452148438
1716758420030911200,0.6709111328125,2.923656463623047,-1.299485206604004,-1.4112118482589722
1716758420040911600,0.68091162109375,2.9772214889526367,-1.2694592475891113,-1.4322963953018188
1716758420050911500,0.690911376953125,2.978614568710327,-1.2276525497436523,-1.4641677141189575
1716758420060911600,0.70091162109375,2.961216688156128,-1.1787891387939453,-1.4520632028579712
1716758420070911500,0.710911376953125,3.003994941711426,-1.1994647979736328,-1.4033477306365967
1716758420080911600,0.72091162109375,2.9709393978118896,-1.2156505584716797,-1.37095308303833
1716758420090911000,0.730910888671875,2.974853754043579,-1.2393732070922852,-1.390040397644043
1716758420100911000,0.7409111328125,2.9582903385162354,-1.2754569053649902,-1.4772711992263794
1716758420110911000,0.750910888671875,2.94797420501709,-1.2833199501037598,-1.5754904747009277
1716758420120911600,0.76091162109375,2.8843748569488525,-1.3468456268310547,-1.5970643758773804
1716758420130911500,0.770911376953125,2.917513132095337,-1.3484320640563965,-1.6054761409759521
1716758420140911000,0.7809111328125,2.921955108642578,-1.3547649383544922,-1.509284257888794
1716758420150911000,0.790910888671875,2.9426732063293457,-1.3010196685791016,-1.4283970594406128
1716758420160911000,0.8009111328125,3.003660202026367,-1.218343734741211,-1.3665300607681274
1716758420170911000,0.810910888671875,2.9853310585021973,-1.147512435913086,-1.316917061805725
1716758420180911000,0.8209111328125,2.943115472793579,-1.1269817352294922,-1.2735302448272705
1716758420190911000,0.830910888671875,2.9154605865478516,-1.1783447265625,-1.278518557548523
1716758420200910800,0.840910888671875,2.897632122039795,-1.2010688781738281,-1.3056135177612305
1716758420210911000,0.850910888671875,2.870621681213379,-1.192819595336914,-1.3529706001281738
1716758420220911000,0.8609111328125,2.860633611679077,-1.220566749572754,-1.3559542894363403
1716758420230911200,0.8709111328125,2.7910821437835693,-1.1765851974487305,-1.3652546405792236
1716758420240911000,0.8809111328125,2.7260138988494873,-1.115738868713379,-1.4553724527359009
1716758420250911200,0.8909111328125,2.6959149837493896,-1.0330228805541992,-1.5164105892181396
1716758420260911000,0.9009111328125,2.6363375186920166,-1.02667236328125,-1.5747029781341553
1716758420270911200,0.9109111328125,2.5576367378234863,-1.0107316970825195,-1.5445561408996582
1716758420280911000,0.9209111328125,2.51943039894104,-1.0473966598510742,-1.449863076210022
1716758420290911700,0.930911865234375,2.5446109771728516,-0.9950523376464844,-1.3598735332489014
1716758420300911000,0.9409111328125,2.6036176681518555,-0.9994945526123047,-1.2796236276626587
1716758420310911200,0.9509111328125,2.6468470096588135,-1.0465965270996094,-1.2462319135665894
1716758420320911000,0.9609111328125,2.670229196548462,-1.1102561950683594,-1.2802765369415283
1716758420330910700,0.97091064453125,2.679034948348999,-1.1714811325073242,-1.367119312286377
1716758420340910300,0.980910400390625,2.7116503715515137,-1.165654182434082,-1.4761042594909668
1716758420350910200,0.99091015625,2.700741767883301,-1.1788253784179688,-1.5560545921325684
1716758420360909800,1.000909912109375,2.6693267822265625,-1.1987323760986328,-1.5574113130569458
1716758420370910000,1.010909912109375,2.750321865081787,-1.1555805206298828,-1.5363521575927734
1716758420380909800,1.020909912109375,2.840230941772461,-1.130589485168457,-1.5698291063308716
1716758420390910000,1.030909912109375,2.9678244590759277,-1.1117935180664062,-1.5449696779251099
1716758420400910000,1.04091015625,3.1577489376068115,-1.1257705688476562,-1.4684773683547974
1716758420410910200,1.05091015625,3.357100248336792,-1.230656623840332,-1.426337718963623
1716758420420909800,1.060909912109375,3.4388015270233154,-1.281123161315918,-1.4205180406570435
1716758420430909700,1.07090966796875,3.4315578937530518,-1.2707643508911133,-1.43113374710083
1716758420440910000,1.08091015625,3.2960968017578125,-1.2503337860107422,-1.4121841192245483
1716758420450910200,1.09091015625,3.1948752403259277,-1.2077322006225586,-1.461827039718628
1716758420460910000,1.10091015625,3.130803108215332,-1.1638917922973633,-1.5518051385879517
1716758420470910200,1.11091015625,3.096795082092285,-1.1731090545654297,-1.606225848197937
1716758420480910000,1.12091015625,2.9955055713653564,-1.1798286437988281,-1.6086370944976807
1716758420490910200,1.13091015625,2.9677481651306152,-1.1504011154174805,-1.6071187257766724
1716758420500910000,1.14091015625,2.9346275329589844,-1.108785629272461,-1.5875047445297241
1716758420510910200,1.15091015625,2.9306490421295166,-1.115178108215332,-1.5141063928604126
1716758420520910000,1.16091015625,2.87918758392334,-1.124037742614746,-1.4365081787109375
1716758420530910200,1.17091015625,2.8210058212280273,-1.1114864349365234,-1.3854548931121826
1716758420540910600,1.18091064453125,2.757899761199951,-1.1132326126098633,-1.3845438957214355
1716758420550910700,1.19091064453125,2.7304954528808594,-1.1125001907348633,-1.4241937398910522
1716758420560910600,1.20091064453125,2.6786715984344482,-1.0852556228637695,-1.401752233505249
1716758420570910700,1.21091064453125,2.647062063217163,-1.0336503982543945,-1.4632210731506348
1716758420580910600,1.22091064453125,2.597364902496338,-1.0127639770507812,-1.5171265602111816
1716758420590910200,1.23091015625,2.620913028717041,-1.041855812072754,-1.4893568754196167
1716758420600910000,1.24091015625,2.6096551418304443,-1.0442161560058594,-1.4256588220596313
1716758420610910200,1.25091015625,2.634760856628418,-1.0483665466308594,-1.3832640647888184
1716758420620910000,1.26091015625,2.688899278640747,-1.0399465560913086,-1.4196727275848389
1716758420630910200,1.27091015625,2.7032346725463867,-1.0119152069091797,-1.446549654006958
1716758420640910000,1.28091015625,2.7122631072998047,-1.0268220901489258,-1.4370344877243042
1716758420650910200,1.29091015625,2.652100086212158,-1.0370292663574219,-1.4220131635665894
1716758420660910600,1.30091064453125,2.5981578826904297,-1.0237236022949219,-1.4491554498672485
1716758420670910500,1.310910400390625,2.5290489196777344,-1.0132865905761719,-1.4664777517318726
1716758420680910600,1.32091064453125,2.540295362472534,-0.9960527420043945,-1.486085057258606
1716758420690910500,1.330910400390625,2.5039851665496826,-1.029191017150879,-1.4464610815048218
1716758420700910300,1.340910400390625,2.490777015686035,-1.0165843963623047,-1.4076777696609497
1716758420710910200,1.35091015625,2.556417226791382,-0.9816675186157227,-1.372016191482544
1716758420720910300,1.360910400390625,2.714934825897217,-1.0177087783813477,-1.3156132698059082
1716758420730910200,1.37091015625,2.8609228134155273,-1.0935945510864258,-1.245121717453003
1716758420740910300,1.380910400390625,3.0253477096557617,-1.0799922943115234,-1.2308355569839478
1716758420750910200,1.39091015625,3.1489014625549316,-1.0687341690063477,-1.2846873998641968
1716758420760910300,1.400910400390625,3.132143974304199,-1.0577688217163086,-1.3988006114959717
1716758420770910200,1.41091015625,3.0169501304626465,-1.0641956329345703,-1.5112898349761963
1716758420780910300,1.420910400390625,2.892071008682251,-1.0641088485717773,-1.5800082683563232
1716758420790910700,1.43091064453125,2.8169851303100586,-1.083754539489746,-1.6208207607269287
1716758420800911000,1.4409111328125,2.74544095993042,-1.1276512145996094,-1.6492247581481934
1716758420810911000,1.450910888671875,2.6507248878479004,-1.1382522583007812,-1.6112802028656006
1716758420820911000,1.4609111328125,2.5897068977355957,-1.0698575973510742,-1.5477908849716187
1716758420830911000,1.470910888671875,2.5427989959716797,-0.9678621292114258,-1.4888334274291992
1716758420840910600,1.48091064453125,2.581799268722534,-0.9016866683959961,-1.4384607076644897
1716758420850910500,1.490910400390625,2.644774913787842,-0.904937744140625,-1.3596768379211426
1716758420860910600,1.50091064453125,2.7316036224365234,-0.8985996246337891,-1.272812843322754
1716758420870910500,1.510910400390625,2.8372347354888916,-0.8921585083007812,-1.258131742477417
1716758420880910600,1.52091064453125,2.870337724685669,-0.8783502578735352,-1.2621043920516968
1716758420890910500,1.530910400390625,2.8404130935668945,-0.9074544906616211,-1.3301576375961304
1716758420900910800,1.540910888671875,2.7329654693603516,-0.9410934448242188,-1.3639122247695923
1716758420910910700,1.55091064453125,2.654088258743286,-1.0249872207641602,-1.4144237041473389
1716758420920910800,1.560910888671875,2.6368653774261475,-1.0632200241088867,-1.4615498781204224
1716758420930910700,1.57091064453125,2.6664915084838867,-1.1202936172485352,-1.5332026481628418
1716758420940910800,1.580910888671875,2.6479744911193848,-1.1102399826049805,-1.5300731658935547
1716758420950910700,1.59091064453125,2.6273562908172607,-1.0954618453979492,-1.4739348888397217
1716758420960910800,1.600910888671875,2.618767261505127,-1.0663270950317383,-1.4459928274154663
1716758420970910700,1.61091064453125,2.667206287384033,-0.9676198959350586,-1.449425220489502
1716758420980910800,1.620910888671875,2.6797516345977783,-0.9479188919067383,-1.4378331899642944
1716758420990910700,1.63091064453125,2.7311248779296875,-0.9235668182373047,-1.3937866687774658
1716758421000910800,1.640910888671875,2.811870574951172,-0.8970174789428711,-1.383536458015442
1716758421010910700,1.65091064453125,2.8093390464782715,-0.9041461944580078,-1.2842648029327393
1716758421020910800,1.660910888671875,2.7687432765960693,-0.8993558883666992,-1.247896432876587
1716758421030910700,1.67091064453125,2.6993069648742676,-0.9089365005493164,-1.2139551639556885
1716758421040911000,1.6809111328125,2.626183032989502,-0.9612560272216797,-1.2491382360458374
1716758421050911200,1.6909111328125,2.6048357486724854,-0.9965610504150391,-1.31613028049469
1716758421060911000,1.7009111328125,2.6573879718780518,-1.0293636322021484,-1.4182974100112915
1716758421070911200,1.7109111328125,2.695751667022705,-1.047856330871582,-1.5039526224136353
1716758421080911000,1.7209111328125,2.70847749710083,-1.0066900253295898,-1.583500862121582
1716758421090910700,1.73091064453125,2.691124677658081,-0.9778051376342773,-1.6044939756393433
1716758421100910600,1.74091064453125,2.6148147583007812,-0.9395904541015625,-1.5333870649337769
1716758421110910500,1.750910400390625,2.587507724761963,-0.9256496429443359,-1.4612115621566772
1716758421120910600,1.76091064453125,2.3867125511169434,-0.8491668701171875,-1.2165292501449585
1716758421130910500,1.770910400390625,2.2399837970733643,-0.8015003204345703,-0.9541987180709839
1716758421140910600,1.78091064453125,2.0801899433135986,-0.7236652374267578,-0.7770596146583557
1716758421150910700,1.79091064453125,1.8979225158691406,-0.6671514511108398,-0.6850389242172241
1716758421160910800,1.800910888671875,1.6964337825775146,-0.5897684097290039,-0.7040063738822937
1716758421170910700,1.81091064453125,1.4385576248168945,-0.4970264434814453,-0.7661211490631104
1716758421180910800,1.820910888671875,1.2155003547668457,-0.4068279266357422,-0.8284884691238403
1716758421190910700,1.83091064453125,1.1290569305419922,-0.40492725372314453,-0.9175918698310852
1716758421200910600,1.84091064453125,1.0707621574401855,-0.4040193557739258,-0.903339147567749
1716758421210910500,1.850910400390625,1.0467538833618164,-0.3485593795776367,-0.7858967185020447
1716758421220910600,1.86091064453125,1.0751781463623047,-0.3218879699707031,-0.6851622462272644
1716758421230910500,1.870910400390625,1.1378803253173828,-0.3520221710205078,-0.5809083580970764
1716758421240910000,1.88091015625,1.2340278625488281,-0.4073467254638672,-0.5341466665267944
1716758421250910200,1.89091015625,1.353884220123291,-0.4733409881591797,-0.5078321099281311
1716758421260910000,1.90091015625,1.4475808143615723,-0.49989891052246094,-0.530413031578064
1716758421270910200,1.91091015625,1.4636731147766113,-0.4995546340942383,-0.6090402007102966
1716758421280910000,1.92091015625,1.3845224380493164,-0.46100330352783203,-0.7215954661369324
1716758421290910500,1.930910400390625,1.297217845916748,-0.4157886505126953,-0.7656082510948181
1716758421300910600,1.94091064453125,1.219010829925537,-0.3762092590332031,-0.8521569967269897
1716758421310910500,1.950910400390625,1.1499333381652832,-0.2921276092529297,-0.8895359635353088
1716758421320910600,1.96091064453125,1.1324195861816406,-0.3045358657836914,-0.8614155054092407
1716758421330910500,1.970910400390625,1.1414079666137695,-0.3243379592895508,-0.7272712588310242
1716758421340910000,1.98091015625,1.1952886581420898,-0.3846616744995117,-0.6280883550643921
1716758421350909700,1.99090966796875,1.3198351860046387,-0.47084712982177734,-0.5749757289886475
1716758421360909800,2.000909912109375,1.442850112915039,-0.5658731460571289,-0.5551607608795166
1716758421370909700,2.01090966796875,1.5574312210083008,-0.6195869445800781,-0.5445037484169006
1716758421380909800,2.020909912109375,1.556839942932129,-0.6012840270996094,-0.600102961063385
1716758421390909700,2.03090966796875,1.4233460426330566,-0.5283412933349609,-0.7500103116035461
1716758421400910000,2.04091015625,1.2487168312072754,-0.44419193267822266,-0.8907865285873413
1716758421410910000,2.050909912109375,1.0547027587890625,-0.38967227935791016,-0.9489710330963135
1716758421420910000,2.06091015625,1.0010337829589844,-0.3191032409667969,-0.9427353739738464
1716758421430910000,2.070909912109375,1.0307154655456543,-0.28937435150146484,-0.8594067692756653
1716758421440910000,2.08091015625,1.133094310760498,-0.3286886215209961,-0.7367822527885437
1716758421450909700,2.09090966796875,1.3387022018432617,-0.37914085388183594,-0.5801824331283569
1716758421460909800,2.100909912109375,1.5426669120788574,-0.41689109802246094,-0.4837988615036011
1716758421470909700,2.11090966796875,1.662142276763916,-0.45903873443603516,-0.4416956901550293
1716758421480909800,2.120909912109375,1.6838412284851074,-0.48677825927734375,-0.4878300428390503
1716758421490909700,2.13090966796875,1.6252107620239258,-0.46686458587646484,-0.6001140475273132
1716758421500909800,2.140909912109375,1.4534530639648438,-0.4236631393432617,-0.7437188029289246
1716758421510909700,2.15090966796875,1.2795324325561523,-0.384002685546875,-0.7882651686668396
1716758421520909800,2.160909912109375,1.132192611694336,-0.34322071075439453,-0.7783700823783875
1716758421530909700,2.17090966796875,1.0440716743469238,-0.30335426330566406,-0.7841384410858154
1716758421540910600,2.18091064453125,1.0567784309387207,-0.29967784881591797,-0.727133572101593
1716758421550910700,2.19091064453125,1.0373821258544922,-0.29088497161865234,-0.6214832663536072
1716758421560910600,2.20091064453125,1.0830354690551758,-0.3410806655883789,-0.5428898334503174
1716758421570910700,2.21091064453125,1.1670761108398438,-0.3949317932128906,-0.5041214823722839
1716758421580910600,2.22091064453125,1.2362895011901855,-0.44730567932128906,-0.5424498319625854
1716758421590910200,2.23091015625,1.219395637512207,-0.47930431365966797,-0.6100403666496277
1716758421600910000,2.24091015625,1.1989765167236328,-0.47948265075683594,-0.7068600058555603
1716758421610910700,2.25091064453125,1.133195400238037,-0.45568370819091797,-0.8312006592750549
1716758421620910600,2.26091064453125,1.092257022857666,-0.4155540466308594,-0.8600987792015076
1716758421630910700,2.27091064453125,1.0525689125061035,-0.4144582748413086,-0.8524404168128967
1716758421640910600,2.28091064453125,1.1123948097229004,-0.3854818344116211,-0.7612535953521729
1716758421650911200,2.2909111328125,1.1684856414794922,-0.37157440185546875,-0.6772750020027161
1716758421660911000,2.3009111328125,1.2247447967529297,-0.36270999908447266,-0.6168029308319092
1716758421670911200,2.3109111328125,1.3067212104797363,-0.37509632110595703,-0.5418161749839783
1716758421680911000,2.3209111328125,1.3756351470947266,-0.43714237213134766,-0.5112137198448181
1716758421690911200,2.3309111328125,1.3793439865112305,-0.4820365905761719,-0.5244213938713074
1716758421700910800,2.340910888671875,1.3634510040283203,-0.4930095672607422,-0.5930085778236389
1716758421710911000,2.350910888671875,1.3808045387268066,-0.47020530700683594,-0.6575736999511719
1716758421720910800,2.360910888671875,1.3358678817749023,-0.38506507873535156,-0.783741295337677
1716758421730911000,2.370910888671875,1.2726211547851562,-0.3386411666870117,-0.8191068768501282
1716758421740910800,2.380910888671875,1.229848861694336,-0.28565025329589844,-0.8115291595458984
1716758421750911000,2.390910888671875,1.2625551223754883,-0.29076480865478516,-0.826127290725708
1716758421760910800,2.400910888671875,1.2985577583312988,-0.33471012115478516,-0.7869172692298889
1716758421770911000,2.410910888671875,1.3425564765930176,-0.4150581359863281,-0.6771945953369141
1716758421780910800,2.420910888671875,1.3819379806518555,-0.4572792053222656,-0.5638014674186707
1716758421790911500,2.430911376953125,1.454430103302002,-0.44669437408447266,-0.5491012930870056
1716758421800911400,2.440911376953125,1.5353879928588867,-0.4283599853515625,-0.5577878952026367
1716758421810911500,2.450911376953125,1.5774908065795898,-0.4215984344482422,-0.5554354786872864
1716758421820911400,2.460911376953125,1.5341787338256836,-0.4173860549926758,-0.5985750555992126
1716758421830911500,2.470911376953125,1.4404282569885254,-0.38281917572021484,-0.6271385550498962
1716758421840910800,2.480910888671875,1.3482017517089844,-0.37381649017333984,-0.7112942337989807
1716758421850911000,2.490910888671875,1.0601463317871094,-0.3383636474609375,-0.7727987170219421
1716758421860910800,2.500910888671875,0.7341132164001465,-0.37231922149658203,-0.8670546412467957
1716758421870911000,2.510910888671875,0.39088010787963867,-0.4391756057739258,-1.0452921390533447
1716758421880910800,2.520910888671875,0.015886545181274414,-0.40399932861328125,-0.9192466735839844
1716758421890911000,2.530910888671875,0.06202840805053711,-0.3008537292480469,-0.7821032404899597
1716758421900910800,2.540910888671875,0.4182772636413574,-0.2964763641357422,-0.5700292587280273
1716758421910910500,2.550910400390625,0.9636037349700928,-0.3626689910888672,-0.32941317558288574
1716758421920910300,2.560910400390625,1.3306796550750732,-0.3969755172729492,-0.27702391147613525
1716758421930910500,2.570910400390625,1.3247590065002441,-0.5020570755004883,-0.4023345708847046
1716758421940910800,2.580910888671875,0.9875903129577637,-0.5962858200073242,-0.6724799275398254
1716758421950910700,2.59091064453125,0.6503677368164062,-0.5639257431030273,-0.9654214978218079
1716758421960910600,2.60091064453125,0.5339765548706055,-0.45617198944091797,-1.2423453330993652
1716758421970910700,2.61091064453125,0.7019052505493164,-0.4303550720214844,-1.2574071884155273
1716758421980910600,2.62091064453125,0.9828815460205078,-0.44289112091064453,-1.09898042678833
1716758421990910700,2.63091064453125,1.1955671310424805,-0.4054899215698242,-0.8197563290596008
1716758422000910600,2.64091064453125,1.4995245933532715,-0.29674816131591797,-0.5690452456474304
1716758422010911200,2.6509111328125,1.716029167175293,-0.25089550018310547,-0.315707266330719
1716758422020911000,2.6609111328125,1.8579421043395996,-0.3208017349243164,-0.1005178689956665
1716758422030911200,2.6709111328125,1.8402962684631348,-0.33196544647216797,-0.013313353061676025
1716758422040911600,2.68091162109375,1.7551350593566895,-0.30381107330322266,-0.08683103322982788
1716758422050911500,2.690911376953125,1.5696163177490234,-0.22944259643554688,-0.29617637395858765
1716758422060911600,2.70091162109375,1.3579497337341309,-0.18559837341308594,-0.5755866169929504
1716758422070911500,2.710911376953125,1.1501445770263672,-0.2294292449951172,-0.8052616119384766
1716758422080911600,2.72091162109375,0.9829635620117188,-0.34836864471435547,-0.9297951459884644
1716758422090911200,2.7309111328125,0.9696750640869141,-0.42937755584716797,-0.9162614345550537
1716758422100911000,2.7409111328125,1.091569423675537,-0.44541358947753906,-0.839005708694458
1716758422110911200,2.7509111328125,1.213418960571289,-0.4295825958251953,-0.696657121181488
1716758422120910800,2.760910888671875,1.3236265182495117,-0.4024639129638672,-0.5709369778633118
1716758422131916000,2.771916015625,1.448317050933838,-0.3647756576538086,-0.4772898554801941
1716758422141916000,2.781916015625,1.4806222915649414,-0.3238668441772461,-0.41791385412216187
1716758422151916000,2.791916015625,1.5222525596618652,-0.27546024322509766,-0.41385406255722046
1716758422161916000,2.801916015625,1.4504308700561523,-0.24909019470214844,-0.40991294384002686
1716758422171916000,2.811916015625,1.2736992835998535,-0.1902923583984375,-0.448733925819397
1716758422181918700,2.821918701171875,1.0955491065979004,-0.17838287353515625,-0.5521297454833984
1716758422191918800,2.8319189453125,0.9780068397521973,-0.20850372314453125,-0.6682108044624329
1716758422201918700,2.841918701171875,0.9559130668640137,-0.27556514739990234,-0.7415750622749329
1716758422211918800,2.8519189453125,0.9372973442077637,-0.3241853713989258,-0.7380694150924683
1716758422221918700,2.861918701171875,0.9478769302368164,-0.36606884002685547,-0.713147759437561
1716758422231918800,2.8719189453125,0.8719229698181152,-0.3409433364868164,-0.6616019010543823
1716758422241918700,2.881918701171875,0.7898135185241699,-0.31763648986816406,-0.5821464657783508
1716758422251918800,2.8919189453125,0.7644681930541992,-0.28330230712890625,-0.47662442922592163
1716758422261918700,2.901918701171875,0.8281593322753906,-0.3475179672241211,-0.3786088824272156
1716758422271918800,2.9119189453125,0.8510026931762695,-0.3015756607055664,-0.45226746797561646
1716758422281918700,2.921918701171875,0.9508805274963379,-0.1887502670288086,-0.48108726739883423
1716758422291918800,2.9319189453125,1.037747859954834,-0.1986064910888672,-0.4125218987464905
1716758422301918700,2.941918701171875,1.0002202987670898,-0.23363304138183594,-0.3722682595252991
1716758422311918800,2.9519189453125,0.9830183982849121,-0.2248077392578125,-0.3666343688964844
1716758422321919500,2.96191943359375,0.7416105270385742,-0.060497283935546875,-0.5024400949478149
1716758422331919600,2.971919677734375,0.7409348487854004,-0.15511226654052734,-0.6021554470062256
1716758422341919500,2.98191943359375,0.7740426063537598,-0.32141876220703125,-0.6783528923988342
1716758422351919600,2.991919677734375,0.8614797592163086,-0.5040073394775391,-0.770491361618042
1716758422361919500,3.00191943359375,0.9352178573608398,-0.556483268737793,-0.8109168410301208
1716758422371919600,3.011919677734375,1.1229472160339355,-0.564396858215332,-0.8056625723838806
1716758422381919500,3.02191943359375,1.4242033958435059,-0.5634346008300781,-0.676182210445404
1716758422391919600,3.031919677734375,1.6411995887756348,-0.6498403549194336,-0.5112521052360535
1716758422401919500,3.04191943359375,1.8047266006469727,-0.7358155250549316,-0.4644545912742615
1716758422411919600,3.051919677734375,1.8719978332519531,-0.7387104034423828,-0.5072241425514221
1716758422421919500,3.06191943359375,1.661909580230713,-0.578608512878418,-0.5301446914672852
1716758422431919900,3.071919921875,1.3601264953613281,-0.37354469299316406,-0.5810098648071289
1716758422441920000,3.081919921875,1.3497400283813477,-0.3666543960571289,-0.5676114559173584
1716758422451920000,3.091919921875,1.2546577453613281,-0.35097217559814453,-0.6575420498847961
1716758422461920000,3.101919921875,1.222193717956543,-0.44091224670410156,-0.6335995197296143
1716758422471919900,3.111919921875,1.2693071365356445,-0.5359296798706055,-0.6960119009017944
1716758422481919500,3.12191943359375,1.376183032989502,-0.5351247787475586,-0.8256292343139648
1716758422491919600,3.131919677734375,1.4734606742858887,-0.5585012435913086,-0.9430819749832153
1716758422501919500,3.14191943359375,1.5764179229736328,-0.5826692581176758,-0.9797431230545044
1716758422511919900,3.151919921875,1.6092963218688965,-0.560302734375,-0.9911348819732666
1716758422521920000,3.161919921875,1.6000089645385742,-0.5089569091796875,-0.9125161170959473
1716758422531920000,3.171919921875,1.3775382041931152,-0.4196767807006836,-0.7381155490875244
1716758422541920000,3.181919921875,1.0629982948303223,-0.3503293991088867,-0.4939965009689331
1716758422551919900,3.191919921875,0.8736939430236816,-0.25002002716064453,-0.3535398244857788
1716758422561920000,3.201919921875,0.7867050170898438,-0.20541000366210938,-0.3481020927429199
1716758422571920100,3.211920166015625,0.7836823463439941,-0.18220138549804688,-0.3776508569717407
1716758422581920000,3.221919921875,0.8398556709289551,-0.21580028533935547,-0.42958056926727295
1716758422591920000,3.231920166015625,0.9877376556396484,-0.29256153106689453,-0.554049015045166
1716758422601920000,3.241919921875,1.1330609321594238,-0.4275693893432617,-0.67421555519104
1716758422611920100,3.251920166015625,1.3420681953430176,-0.5523042678833008,-0.7641376256942749
1716758422621919500,3.26191943359375,1.410346508026123,-0.6389265060424805,-0.8297630548477173
1716758422631919600,3.271919677734375,1.409006118774414,-0.623713493347168,-0.7849494218826294
1716758422641919500,3.28191943359375,1.307401180267334,-0.5739707946777344,-0.7855561971664429
1716758422651919600,3.291919677734375,1.2564983367919922,-0.46607494354248047,-0.7421771287918091
1716758422661919500,3.30191943359375,1.0306291580200195,-0.4004402160644531,-0.6133136749267578
1716758422671919600,3.311919677734375,0.8734478950500488,-0.3024311065673828,-0.4818003177642822
1716758422681920000,3.321919921875,0.8539552688598633,-0.2628011703491211,-0.3978419303894043
1716758422691920100,3.331920166015625,0.8423428535461426,-0.1997528076171875,-0.38688361644744873
1716758422701920000,3.341919921875,0.8332901000976562,-0.2134571075439453,-0.3978288173675537
1716758422711920000,3.351920166015625,0.7189092636108398,-0.2870054244995117,-0.36076486110687256
1716758422721920000,3.361919921875,0.650019645690918,-0.3507518768310547,-0.44657325744628906
1716758422731919600,3.371919677734375,0.6899514198303223,-0.34181880950927734,-0.5669196844100952
1716758422741919500,3.38191943359375,0.7652902603149414,-0.37921142578125,-0.620121955871582
1716758422751919600,3.391919677734375,0.8614253997802734,-0.3767061233520508,-0.5853630304336548
1716758422761919500,3.40191943359375,1.0068926811218262,-0.3651399612426758,-0.5906181335449219
1716758422771919600,3.411919677734375,1.1286582946777344,-0.4394693374633789,-0.6011389493942261
1716758422781919500,3.42191943359375,1.1311545372009277,-0.45770931243896484,-0.650230884552002
1716758422791919600,3.431919677734375,1.0920333862304688,-0.3558464050292969,-0.7411737442016602
1716758422801919500,3.44191943359375,0.9258937835693359,-0.31388378143310547,-0.8930851221084595
1716758422811919000,3.451919189453125,0.7706484794616699,-0.4246559143066406,-0.7897630929946899
1716758422821919500,3.46191943359375,0.7906408309936523,-0.5884408950805664,-0.7178663015365601
1716758422831919600,3.471919677734375,0.9832172393798828,-0.6831955909729004,-0.6816344261169434
1716758422841919500,3.48191943359375,1.2899141311645508,-0.6952981948852539,-0.5807722806930542
1716758422851919600,3.491919677734375,1.5218696594238281,-0.6618824005126953,-0.533373236656189
1716758422861919500,3.50191943359375,1.677419662475586,-0.5101203918457031,-0.49590635299682617
1716758422871919900,3.511919921875,1.6611151695251465,-0.39212512969970703,-0.40617871284484863
1716758422881920000,3.521919921875,1.5826973915100098,-0.33275604248046875,-0.32418692111968994
1716758422891920000,3.531919921875,1.45713472366333,-0.3467254638671875,-0.3429769277572632
1716758422901920500,3.54192041015625,1.3689918518066406,-0.33997344970703125,-0.41380763053894043
1716758422911920400,3.55192041015625,1.2337150573730469,-0.371978759765625,-0.46062397956848145
1716758422921920500,3.56192041015625,1.0218424797058105,-0.33206653594970703,-0.5759648084640503
1716758422931920400,3.57192041015625,0.7978310585021973,-0.3264751434326172,-0.7452133893966675
1716758422941920500,3.58192041015625,0.6234416961669922,-0.39928150177001953,-0.8792445659637451
1716758422951920400,3.59192041015625,0.5800013542175293,-0.46091461181640625,-0.9381464719772339
1716758422961920500,3.60192041015625,0.6820931434631348,-0.5152583122253418,-0.9530678987503052
1716758422971920400,3.61192041015625,0.8619842529296875,-0.5931835174560547,-0.8699947595596313
1716758422981920000,3.621919921875,0.996300220489502,-0.5468254089355469,-0.6858028173446655
1716758422991919600,3.631919677734375,1.1202397346496582,-0.4847698211669922,-0.48637664318084717
1716758423001919500,3.64191943359375,1.187859058380127,-0.3841571807861328,-0.29082775115966797
1716758423011919600,3.651919677734375,1.2678918838500977,-0.30782604217529297,-0.1777411699295044
1716758423021919500,3.66191943359375,1.1866354942321777,-0.23210811614990234,-0.21601760387420654
1716758423031919600,3.671919677734375,1.0884251594543457,-0.16905593872070312,-0.2859230041503906
1716758423041919500,3.68191943359375,1.1168746948242188,-0.17855072021484375,-0.36119675636291504
1716758423051919600,3.691919677734375,1.3292412757873535,-0.20800209045410156,-0.4817676544189453
1716758423061919500,3.70191943359375,1.6201119422912598,-0.26473045349121094,-0.6346542835235596
1716758423071920000,3.711920166015625,1.6171321868896484,-0.47136354446411133,-0.6273988485336304
1716758423081920000,3.721919921875,1.3829221725463867,-0.6147441864013672,-0.5580828189849854
1716758423091920100,3.731920166015625,1.1187291145324707,-0.5403614044189453,-0.594559907913208
1716758423101919700,3.741919677734375,0.9487361907958984,-0.3478384017944336,-0.662896990776062
1716758423111919600,3.751919677734375,0.7731361389160156,-0.17073822021484375,-0.5963829755783081
1716758423121919200,3.761919189453125,0.680816650390625,-0.04284954071044922,-0.503509521484375
1716758423131919000,3.771919189453125,0.7770576477050781,0.07185173034667969,-0.34780776500701904
1716758423141919200,3.781919189453125,0.9483814239501953,0.0865316390991211,-0.27859222888946533
1716758423151919000,3.791919189453125,1.2175002098083496,0.03195762634277344,-0.4155874252319336
1716758423161919200,3.801919189453125,1.4877009391784668,0.09916305541992188,-0.8399789333343506
1716758423171918600,3.811918701171875,1.599454402923584,0.2904472351074219,-1.1725108623504639
1716758423181919200,3.821919189453125,0.9471244812011719,0.3829622268676758,-1.1235110759735107
1716758423191919000,3.831919189453125,0.6442413330078125,0.4724292755126953,-0.8553069829940796
1716758423201919200,3.841919189453125,0.6473808288574219,0.5221042633056641,-0.6433379650115967
1716758423211918800,3.8519189453125,0.836606502532959,0.4806222915649414,-0.18806028366088867
1716758423221918700,3.861918701171875,1.3267755508422852,0.8268241882324219,0.023090004920959473
1716758423231918600,3.871918701171875,1.5884222984313965,1.6466560363769531,-0.19742286205291748
1716758423241918700,3.881918701171875,1.938737392425537,2.397822380065918,-0.015224456787109375
1716758423251918600,3.891918701171875,2.6816067695617676,2.3960342407226562,0.29413169622421265
1716758423261919200,3.901919189453125,3.1567606925964355,1.9910335540771484,0.5763742923736572
1716758423271919000,3.911919189453125,3.0498437881469727,1.4036188125610352,0.7347259521484375
1716758423281919200,3.921919189453125,3.046356201171875,1.0719366073608398,0.8603641986846924
1716758423291919600,3.931919677734375,3.1576385498046875,1.2050161361694336,0.8253092765808105
1716758423301919500,3.94191943359375,3.0225677490234375,1.571507453918457,0.7306272983551025
1716758423311919600,3.951919677734375,2.797361373901367,1.716888427734375,0.6252709627151489
1716758423321919700,3.961919677734375,2.0212764739990234,1.5801801681518555,0.45793575048446655
1716758423331919600,3.971919677734375,1.1066055297851562,1.6537046432495117,-0.13401150703430176
1716758423341919700,3.981919677734375,0.6713848114013672,1.9494571685791016,-0.723831295967102
1716758423351919600,3.991919677734375,3.6014347076416016,2.7583913803100586,-0.9286209344863892
1716758423361919700,4.001919677734375,4.183611869812012,3.7610206604003906,0.6338634490966797
1716758423371919000,4.011919189453125,5.534146308898926,3.9867868423461914,3.203108787536621
1716758423381919200,4.021919189453125,6.899129867553711,5.088702201843262,5.583303451538086
1716758423391919000,4.031919189453125,7.921868801116943,5.991205215454102,7.891324043273926
1716758423401919500,4.04191943359375,9.27281379699707,5.892638206481934,9.118633270263672
1716758423411919600,4.051919677734375,10.974296569824219,5.082581520080566,9.579052925109863
1716758423421919500,4.06191943359375,11.745745658874512,4.08384895324707,9.36966609954834
1716758423431920000,4.071920166015625,11.973982810974121,2.5711145401000977,8.219526290893555
1716758423441920000,4.081919921875,10.844745635986328,-4.018535614013672,4.853987693786621
1716758423451920100,4.091920166015625,10.139394760131836,-10.461061477661133,-3.053525924682617
1716758423461920000,4.101919921875,13.207084655761719,-3.576320171356201,-1.8500678539276123
1716758423471920000,4.111920166015625,12.648048400878906,0.4915037155151367,3.7043824195861816
1716758423481919500,4.12191943359375,12.460668563842773,1.3673925399780273,7.593438625335693
1716758423491919600,4.131919677734375,9.79111385345459,-1.3061819076538086,6.94398307800293
1716758423501919200,4.141919189453125,7.433945178985596,-3.77775239944458,5.93629264831543
1716758423511919600,4.151919677734375,7.120644569396973,-4.585743427276611,5.328869819641113
1716758423521919500,4.16191943359375,7.768555641174316,-4.871101379394531,4.850298881530762
1716758423531919600,4.171919677734375,8.531349182128906,-5.117011070251465,5.821224212646484
1716758423541920000,4.181919921875,8.667196273803711,-5.344990253448486,7.848941326141357
1716758423551919900,4.191919921875,8.68842887878418,-5.305642127990723,10.82224178314209
1716758423561919500,4.20191943359375,9.974719047546387,-4.592896938323975,12.584771156311035
1716758423571920000,4.211919921875,12.583600997924805,-4.655147075653076,11.898259162902832
1716758423581920000,4.221919921875,10.809562683105469,-5.155807971954346,11.744287490844727
1716758423591919900,4.231919921875,8.696696281433105,-5.818282127380371,11.844968795776367
1716758423601920000,4.241919921875,7.29367208480835,-6.028318405151367,11.517138481140137
1716758423611920000,4.251919921875,6.380904674530029,-6.783430576324463,10.611099243164062
1716758423621920000,4.261919921875,5.098198413848877,-7.58164644241333,9.461868286132812
1716758423631919900,4.271919921875,4.19966983795166,-8.077585220336914,8.924344062805176
1716758423641920000,4.281919921875,4.934077739715576,-7.9473724365234375,9.384675025939941
1716758423651920400,4.29192041015625,6.925529479980469,-7.413976192474365,10.237317085266113
1716758423661920500,4.30192041015625,8.498563766479492,-6.77618408203125,10.97509765625
1716758423671920400,4.31192041015625,9.423772811889648,-6.594202518463135,11.352384567260742
1716758423681920800,4.321920654296875,9.517483711242676,-7.185300350189209,10.268946647644043
1716758423691921000,4.3319208984375,8.291078567504883,-7.687017440795898,8.36890697479248
1716758423701920800,4.341920654296875,6.174882888793945,-7.976833343505859,6.793869495391846
1716758423711921000,4.3519208984375,4.849123954772949,-8.17230224609375,6.309784412384033
1716758423721920800,4.361920654296875,3.880683660507202,-8.169096946716309,6.32894229888916
1716758423731921000,4.3719208984375,3.7455530166625977,-7.939516067504883,6.022202491760254
1716758423741920800,4.381920654296875,4.850114822387695,-7.459100246429443,6.238217830657959
1716758423751921000,4.3919208984375,6.575221061706543,-6.908974647521973,7.030526161193848
1716758423761920800,4.401920654296875,8.145261764526367,-6.597867965698242,8.148033142089844
1716758423771921000,4.4119208984375,8.395050048828125,-6.454662322998047,8.823744773864746
1716758423781920800,4.421920654296875,7.193824291229248,-6.416194915771484,8.625032424926758
1716758423791921000,4.4319208984375,5.108180999755859,-6.656132221221924,7.421133518218994
1716758423801920800,4.441920654296875,3.001734733581543,-6.910394668579102,5.739265441894531
1716758423811921000,4.4519208984375,0.7110819816589355,-6.946223258972168,4.599669456481934
1716758423821921300,4.46192138671875,-1.3675241470336914,-6.685225486755371,4.921749114990234
1716758423831921400,4.47192138671875,-2.2927093505859375,-6.0692057609558105,5.922854423522949
1716758423841920800,4.481920654296875,-1.649285078048706,-5.611632347106934,6.763991355895996
1716758423851921000,4.4919208984375,-0.5504980087280273,-5.6157026290893555,7.232812881469727
1716758423861920800,4.501920654296875,0.18996191024780273,-5.981853008270264,7.2312116622924805
1716758423871920400,4.51192041015625,0.5873699188232422,-6.571481227874756,6.742946624755859
1716758423881920500,4.52192041015625,0.8269424438476562,-7.148159503936768,5.209651470184326
1716758423891920400,4.53192041015625,1.0113739967346191,-7.410927772521973,3.64945125579834
1716758423901920500,4.54192041015625,1.0467681884765625,-7.812099456787109,2.0048341751098633
1716758423911920400,4.55192041015625,0.710965633392334,-8.111078262329102,0.49317502975463867
1716758423921920500,4.56192041015625,0.17827796936035156,-8.067602157592773,-0.6568570137023926
1716758423931921000,4.5719208984375,-0.5253825187683105,-8.034703254699707,-1.8779606819152832
1716758423941920800,4.581920654296875,-0.6292014122009277,-7.948581218719482,-2.9046053886413574
1716758423951920400,4.59192041015625,-0.004009246826171875,-7.52121639251709,-2.9734697341918945
1716758423961920500,4.60192041015625,0.5141010284423828,-6.693959712982178,-2.4627485275268555
1716758423971920100,4.611920166015625,1.3144316673278809,-5.638851642608643,-1.8018450736999512
1716758423985927000,4.625927001953125,2.230146884918213,-4.837926864624023,-1.1739697456359863
1716758423995927000,4.635927001953125,3.2534351348876953,-3.961610794067383,-1.3090286254882812
1716758424005927000,4.645927001953125,3.3858513832092285,-3.2598767280578613,-2.143477439880371
1716758424015927000,4.655927001953125,2.9191994667053223,-3.1062092781066895,-3.0976057052612305
1716758424025927000,4.665927001953125,2.7124457359313965,-3.107487678527832,-3.7947287559509277
1716758424035926500,4.675926513671875,3.331876277923584,-2.9301071166992188,-3.985269546508789
1716758424045926400,4.685926513671875,4.333508491516113,-2.565885543823242,-3.4438552856445312
1716758424055926500,4.695926513671875,5.780637264251709,-2.023890495300293,-2.352078437805176
1716758424065926400,4.705926513671875,6.738600254058838,-1.5729637145996094,-1.1823091506958008
1716758424075927000,4.715927001953125,6.7940239906311035,-1.1500248908996582,-0.38674020767211914
1716758424085927400,4.725927490234375,6.006957530975342,-0.8812313079833984,-0.03572893142700195
1716758424095927300,4.73592724609375,5.511605262756348,-0.8442559242248535,0.429365873336792
1716758424105927400,4.745927490234375,5.294332981109619,-0.9814949035644531,0.6324598789215088
1716758424115927300,4.75592724609375,5.188897132873535,-1.2414140701293945,0.758760929107666
1716758424125927000,4.765927001953125,5.059324264526367,-1.6973047256469727,1.1393766403198242
1716758424135927000,4.775927001953125,4.524019241333008,-2.216285228729248,1.5919573307037354
1716758424145927000,4.785927001953125,4.141014099121094,-2.852560043334961,1.4899773597717285
1716758424155927000,4.795927001953125,3.488102436065674,-4.512655258178711,-0.1672680377960205
1716758424165927000,4.805927001953125,1.381014347076416,-5.495262145996094,-2.7092204093933105
1716758424175927000,4.815927001953125,4.241175174713135,-5.477093696594238,0.3291656970977783
1716758424185927400,4.825927490234375,5.217896461486816,-6.069102764129639,0.7020483016967773
1716758424195927300,4.83592724609375,5.6891679763793945,-5.541220188140869,0.9957168102264404
1716758424205927400,4.845927490234375,5.233272075653076,-4.954255104064941,0.8359023332595825
1716758424215927300,4.85592724609375,4.567388534545898,-5.654191970825195,-0.312483549118042
1716758424225927400,4.865927490234375,3.611147880554199,-6.260080814361572,-0.8226950168609619
1716758424235927000,4.875927001953125,2.8328423500061035,-6.297263145446777,-1.021280288696289
1716758424245927000,4.885927001953125,2.2251834869384766,-6.10557746887207,-1.1379377841949463
1716758424255927000,4.895927001953125,1.7181453704833984,-6.176247596740723,-1.2530500888824463
1716758424265927000,4.905927001953125,1.3135104179382324,-5.919137477874756,-0.9045357704162598
1716758424275927300,4.91592724609375,1.345362663269043,-5.347997665405273,-0.19139862060546875
1716758424285927400,4.925927490234375,1.2138524055480957,-4.892235279083252,0.6120302677154541
1716758424295927800,4.935927734375,1.0104069709777832,-4.415831565856934,1.0289826393127441
1716758424305928000,4.945927978515625,1.2276854515075684,-3.629519462585449,1.2001698017120361
1716758424315927800,4.955927734375,1.7309308052062988,-2.6654915809631348,1.4893349409103394
1716758424325928200,4.96592822265625,2.2417984008789062,-1.7757039070129395,1.6199504137039185
1716758424335928300,4.97592822265625,2.7821316719055176,-0.9994759559631348,1.7671196460723877
1716758424345928200,4.98592822265625,3.370460033416748,-0.48682689666748047,2.0545949935913086
1716758424355928300,4.99592822265625,4.038790702819824,-0.5634307861328125,2.043069839477539
1716758424365928200,5.00592822265625,4.680726528167725,-0.9294734001159668,1.9075751304626465
1716758424375927800,5.015927734375,4.965235233306885,-1.047684669494629,1.6743180751800537
1716758424385927400,5.025927490234375,5.735413551330566,-0.8601117134094238,1.6456148624420166
1716758424395927300,5.03592724609375,6.499598026275635,-0.5593714714050293,2.04520320892334
1716758424405927400,5.045927490234375,6.825253963470459,-1.020078182220459,2.023138999938965
1716758424415927300,5.05592724609375,6.4826202392578125,-1.0525999069213867,1.6754112243652344
1716758424425927400,5.065927490234375,5.771095275878906,-0.9177403450012207,1.1350924968719482
1716758424435927800,5.075927734375,4.663337707519531,-0.7344112396240234,0.5195927619934082
1716758424445928000,5.085927978515625,3.7619805335998535,-0.8271212577819824,0.5788478851318359
1716758424455927800,5.095927734375,3.156660556793213,-1.227485179901123,1.0217084884643555
1716758424465928000,5.105927978515625,3.4217634201049805,-1.6168622970581055,1.6638569831848145
1716758424475927800,5.115927734375,3.525257110595703,-1.8160371780395508,1.8855507373809814
1716758424485927400,5.125927490234375,3.159210681915283,-1.8764867782592773,1.7513689994812012
1716758424495927300,5.13592724609375,2.768436908721924,-2.0169167518615723,1.5795080661773682
1716758424505927400,5.145927490234375,2.993812084197998,-2.2676382064819336,1.587998628616333
1716758424515927300,5.15592724609375,2.6913042068481445,-2.30350399017334,1.5785527229309082
1716758424525927400,5.165927490234375,2.2779626846313477,-2.1580934524536133,1.5821185111999512
1716758424535927300,5.17592724609375,1.8617663383483887,-1.8413162231445312,1.6959939002990723
1716758424545927400,5.185927490234375,1.3784074783325195,-1.161172866821289,1.3635692596435547
1716758424555927300,5.19592724609375,0.4565410614013672,-0.21541595458984375,1.2811923027038574
1716758424565927400,5.205927490234375,-0.6148109436035156,0.47099828720092773,1.549699306488037
1716758424575927800,5.215927734375,-1.003934383392334,1.3957512378692627,1.7689099311828613
1716758424585928000,5.225927978515625,-1.0624470710754395,2.0965042114257812,1.8064451217651367
1716758424595927300,5.23592724609375,-1.2104692459106445,2.2765398025512695,1.8244991302490234
1716758424605927400,5.245927490234375,-1.8145480155944824,2.0228683948516846,2.389103412628174
1716758424615927300,5.25592724609375,-2.75715970993042,2.1228723526000977,3.661900758743286
1716758424625927000,5.265927001953125,-3.2470273971557617,2.899052858352661,4.493556976318359
1716758424635926800,5.2759267578125,-3.5891644954681396,3.370375871658325,4.7033514976501465
1716758424645927000,5.285927001953125,-3.9228360652923584,3.477928638458252,3.9718520641326904
1716758424655926800,5.2959267578125,-4.0306806564331055,3.211851119995117,2.9970030784606934
1716758424665927000,5.305927001953125,-4.050612926483154,2.738349676132202,2.2013278007507324
1716758424675926800,5.3159267578125,-3.8319332599639893,2.1612818241119385,1.3874702453613281
1716758424685927400,5.325927490234375,-3.442248821258545,1.8588812351226807,0.7942585945129395
1716758424695927300,5.33592724609375,-2.8518786430358887,1.962933897972107,0.9241466522216797
1716758424705927400,5.345927490234375,-1.8515501022338867,1.9862861633300781,1.1867752075195312
1716758424715927300,5.35592724609375,-0.9279208183288574,2.002166271209717,1.6269316673278809
1716758424725927400,5.365927490234375,-0.5434060096740723,2.2038862705230713,1.6170215606689453
1716758424735926800,5.3759267578125,-0.5564618110656738,2.2914175987243652,1.5228242874145508
1716758424745927000,5.385927001953125,-0.9157528877258301,2.084367275238037,1.104830265045166
1716758424755926800,5.3959267578125,-1.2305960655212402,1.6038702726364136,0.47897911071777344
1716758424765927000,5.405927001953125,-2.106893539428711,-2.7160043716430664,-3.022970676422119
1716758424775926800,5.4159267578125,-3.650406837463379,-1.154821515083313,-4.436137676239014
1716758424785927000,5.425927001953125,-6.505459308624268,1.2327895164489746,-2.9178638458251953
1716758424795926800,5.4359267578125,-6.672282695770264,1.8237836360931396,-0.7579569816589355
1716758424805927000,5.445927001953125,-6.047532558441162,2.235558271408081,-0.037009239196777344
1716758424815926800,5.4559267578125,-6.053806304931641,2.6977896690368652,-0.025016307830810547
1716758424825927400,5.465927490234375,-6.596950531005859,3.233447551727295,0.3576645851135254
1716758424835927300,5.47592724609375,-6.780211448669434,3.3477203845977783,0.7450704574584961
1716758424845927400,5.485927490234375,-5.931588649749756,3.394258499145508,1.3586158752441406
1716758424855927300,5.49592724609375,-4.5658087730407715,2.91412615776062,1.7389302253723145
1716758424865927400,5.505927490234375,-3.549440860748291,2.1538941860198975,0.9647784233093262
1716758424875926800,5.5159267578125,-2.9260239601135254,1.1362659931182861,-1.4968347549438477
1716758424885927000,5.525927001953125,-0.7771511077880859,-0.435854434967041,-4.758493423461914
1716758424895926800,5.5359267578125,-0.8630247116088867,1.4814667701721191,-3.48715877532959
1716758424905927000,5.545927001953125,-0.8303885459899902,1.387319803237915,-0.4475135803222656
1716758424915926800,5.5559267578125,-1.5236945152282715,2.5231895446777344,0.2204141616821289
1716758424925927000,5.565927001953125,-1.694817066192627,3.1032004356384277,0.055342674255371094
1716758424935927300,5.57592724609375,-3.2488439083099365,2.8286290168762207,0.7842650413513184
1716758424945927400,5.585927490234375,-4.062611103057861,2.5106875896453857,0.22115421295166016
1716758424955927300,5.59592724609375,-4.593944549560547,2.286356210708618,-0.48250293731689453
1716758424965927400,5.605927490234375,-3.7735724449157715,2.159780740737915,-0.48965930938720703
1716758424975927300,5.61592724609375,-3.646721839904785,1.8736817836761475,-0.07848834991455078
1716758424985927000,5.625927001953125,-3.8646697998046875,1.87640380859375,-0.27188777923583984
1716758424995926800,5.6359267578125,-3.832131862640381,1.8499542474746704,-0.7070274353027344
1716758425005927000,5.645927001953125,-3.8667116165161133,1.7279824018478394,-1.1124286651611328
1716758425015926800,5.6559267578125,-4.2623162269592285,1.430487871170044,-1.1606216430664062
1716758425025927000,5.665927001953125,-4.668503761291504,1.37176513671875,-1.616877555847168
1716758425035926800,5.6759267578125,-4.697221279144287,2.0392370223999023,-1.7380399703979492
1716758425045927000,5.685927001953125,-4.2462968826293945,2.454538583755493,-1.3253717422485352
1716758425055926800,5.6959267578125,-4.065369606018066,2.7073822021484375,-1.7304096221923828
1716758425065927000,5.705927001953125,-3.2318708896636963,2.3093929290771484,-2.339700698852539
1716758425075926800,5.7159267578125,-4.418844699859619,1.8413194417953491,-2.6321516036987305
1716758425085927000,5.725927001953125,-5.491920471191406,1.5410170555114746,-2.6197681427001953
1716758425095926800,5.7359267578125,-5.45208740234375,1.4368956089019775,-2.54727840423584
1716758425105927000,5.745927001953125,-6.133392333984375,1.4071319103240967,-1.8308649063110352
1716758425115926800,5.7559267578125,-6.250309467315674,1.2593363523483276,-1.0478315353393555
1716758425125926400,5.765926513671875,-5.752117156982422,1.432037353515625,-0.4937124252319336
1716758425135926500,5.775926513671875,-4.95074462890625,1.8407142162322998,-0.5032339096069336
1716758425145926400,5.785926513671875,-4.261628150939941,1.9155455827713013,-0.07670211791992188
1716758425155926500,5.795926513671875,-5.017882347106934,1.8099420070648193,0.9174909591674805
1716758425165926400,5.805926513671875,-5.901896953582764,1.5430254936218262,1.2514114379882812
1716758425175926500,5.815926513671875,-5.456688404083252,1.676247477531433,0.3871641159057617
1716758425185927000,5.825927001953125,-4.012151718139648,1.9824014902114868,0.19706249237060547
1716758425195926800,5.8359267578125,-2.7155330181121826,1.718536376953125,0.1385936737060547
1716758425205927000,5.845927001953125,-2.1414730548858643,1.5138213634490967,1.0248937606811523
1716758425215926800,5.8559267578125,-2.222437620162964,1.9345020055770874,1.5999774932861328
1716758425225927000,5.865927001953125,-2.216559410095215,2.0593976974487305,2.459653854370117
1716758425235926500,5.875926513671875,-3.397094964981079,1.0177501440048218,2.164574146270752
1716758425245926400,5.885926513671875,-4.0196380615234375,0.05533623695373535,-2.1378421783447266
1716758425255926500,5.895926513671875,-2.9732272624969482,-1.2050461769104004,-5.16722297668457
1716758425265926400,5.905926513671875,-2.7387616634368896,-0.5329222679138184,-3.1585254669189453
1716758425275926500,5.915926513671875,-3.7069809436798096,1.4391911029815674,-0.4156064987182617
1716758425285926400,5.925926513671875,-4.453915596008301,2.602783679962158,1.1597013473510742
1716758425295926500,5.935926513671875,-3.656419515609741,2.5464301109313965,1.3600921630859375
1716758425305926400,5.945926513671875,-3.341776132583618,1.9702355861663818,1.4745187759399414
1716758425315926500,5.955926513671875,-2.6197872161865234,1.0820188522338867,1.162386417388916
1716758425325927000,5.965927001953125,-1.9670674800872803,0.6493057012557983,0.5950808525085449
1716758425335926800,5.9759267578125,-1.9005696773529053,0.8778700232505798,0.8235988616943359
1716758425345927000,5.985927001953125,-1.6109166145324707,1.0736777782440186,1.3849191665649414
1716758425355926800,5.9959267578125,-1.2573614120483398,1.0301481485366821,1.803375244140625
1716758425365927000,6.005927001953125,-1.6517157554626465,0.9499843120574951,1.824131965637207
1716758425375926800,6.0159267578125,-1.2049560546875,0.917478084564209,1.439988613128662
1716758425385927000,6.025927001953125,-0.09902429580688477,-0.21933376789093018,0.6263713836669922
1716758425395926800,6.0359267578125,0.1729426383972168,-0.14348435401916504,1.5425691604614258
1716758425405927000,6.045927001953125,-0.5157036781311035,0.5280189514160156,1.8693780899047852
1716758425415926800,6.0559267578125,-1.1855177879333496,1.0799810886383057,1.655649185180664
1716758425425927000,6.065927001953125,-1.8826932907104492,1.350883960723877,0.8507933616638184
1716758425435926800,6.0759267578125,-1.2950458526611328,1.43950355052948,-0.1397418975830078
1716758425445927000,6.085927001953125,-2.5379838943481445,1.082132339477539,0.40771007537841797
1716758425455926800,6.0959267578125,-3.855668544769287,1.0490877628326416,1.4981584548950195
1716758425465927000,6.105927001953125,-3.5605862140655518,0.6412227153778076,2.7118821144104004
1716758425475926800,6.1159267578125,-2.408355236053467,0.8719981908798218,3.0484070777893066
1716758425485926400,6.125926513671875,-1.2334952354431152,1.6866066455841064,2.185899257659912
1716758425495926500,6.135926513671875,-0.5974969863891602,2.4207310676574707,1.5472970008850098
1716758425505926400,6.145926513671875,-0.5772309303283691,2.646841049194336,2.066898822784424
1716758425515926500,6.155926513671875,-0.846221923828125,2.146843194961548,2.723385810852051
1716758425525926400,6.165926513671875,-0.22434377670288086,1.5739928483963013,3.2662179470062256
1716758425535926500,6.175926513671875,-0.24151182174682617,0.9237216711044312,3.3814263343811035
1716758425545926400,6.185926513671875,0.4957699775695801,0.9017261266708374,3.7330522537231445
1716758425555926500,6.195926513671875,1.343212604522705,1.0208427906036377,3.4603545665740967
1716758425565926400,6.205926513671875,1.601755142211914,1.5342342853546143,2.997762441635132
1716758425575926800,6.2159267578125,1.5034270286560059,2.272456645965576,2.6795477867126465
1716758425585927000,6.225927001953125,0.8804764747619629,2.6011290550231934,2.389796257019043
1716758425595926800,6.2359267578125,0.3722386360168457,2.955495834350586,1.8203821182250977
1716758425605927000,6.245927001953125,0.18171262741088867,3.022853136062622,0.9154672622680664
1716758425615926800,6.2559267578125,2.664858818054199,2.2546682357788086,0.9551620483398438
1716758425625926400,6.265926513671875,2.7272634506225586,1.0000383853912354,1.383068561553955
1716758425635926500,6.275926513671875,2.6083059310913086,-0.8278639316558838,1.678365707397461
1716758425645926400,6.285926513671875,2.5914511680603027,-1.0426057577133179,1.5202336311340332
1716758425655926500,6.295926513671875,2.1982574462890625,-0.8480504751205444,1.440786361694336
1716758425665926400,6.305926513671875,0.43077850341796875,-0.30361318588256836,1.4002466201782227
1716758425675926500,6.315926513671875,2.0041189193725586,0.189680814743042,0.8813700675964355
1716758425685927000,6.325927001953125,3.6718978881835938,-0.07592320442199707,1.1985650062561035
1716758425695926800,6.3359267578125,3.8399367332458496,0.19157934188842773,1.6574840545654297
1716758425705927000,6.345927001953125,3.7610268592834473,0.9358786344528198,2.24190616607666
1716758425715926800,6.3559267578125,3.608774185180664,1.4157153367996216,2.7520411014556885
1716758425725927000,6.365927001953125,3.7404050827026367,0.882489800453186,2.8938865661621094
1716758425735926800,6.3759267578125,4.3235554695129395,-0.25424110889434814,3.0483694076538086
1716758425745927000,6.385927001953125,4.892457962036133,-0.5783292055130005,2.576308012008667
1716758425755926800,6.3959267578125,4.579348564147949,-0.104156494140625,3.341708183288574
1716758425765927000,6.405927001953125,9.259042739868164,0.31165170669555664,-0.6196298599243164
1716758425775926800,6.4159267578125,12.291584968566895,-0.4353632926940918,-3.2689318656921387
1716758425785927000,6.425927001953125,9.916972160339355,-1.1066575050354004,-2.708594799041748
1716758425795926800,6.4359267578125,8.631514549255371,-0.8056763410568237,-0.990938663482666
1716758425805927000,6.445927001953125,7.826900482177734,-1.0280131101608276,-0.3616175651550293
1716758425815926800,6.4559267578125,8.073938369750977,-1.2099003791809082,0.34914493560791016
1716758425825927400,6.465927490234375,7.088438987731934,-0.17782092094421387,0.1813187599182129
1716758425835927300,6.47592724609375,5.602431297302246,0.4457794427871704,0.5397539138793945
1716758425845927400,6.485927490234375,5.347911834716797,0.4317542314529419,0.48581695556640625
1716758425855927300,6.49592724609375,6.7735595703125,0.22162556648254395,0.05520915985107422
1716758425865927400,6.505927490234375,8.844734191894531,-0.0685197114944458,-0.1417088508605957
1716758425875926800,6.5159267578125,9.25497817993164,-0.8811953067779541,-0.31433677673339844
1716758425885927000,6.525927001953125,8.226375579833984,-2.167112350463867,0.07379770278930664
1716758425895926800,6.5359267578125,8.676192283630371,-2.110032558441162,0.5956087112426758
1716758425905927000,6.545927001953125,10.351598739624023,-0.4542872905731201,0.3494987487792969
1716758425915926800,6.5559267578125,10.440638542175293,-0.6459503173828125,0.06951665878295898
1716758425925927000,6.565927001953125,10.356463432312012,-0.7745945453643799,-0.8180108070373535
1716758425935927300,6.57592724609375,10.043780326843262,-1.0033726692199707,-1.227351188659668
1716758425945927400,6.585927490234375,9.104561805725098,-0.9996001720428467,-0.897768497467041
1716758425955927300,6.59592724609375,8.60092830657959,-0.5602595806121826,-1.038083553314209
1716758425965927400,6.605927490234375,8.842957496643066,-0.18181705474853516,-1.823659896850586
1716758425975927800,6.615927734375,8.557579040527344,-0.3667256832122803,-2.221465587615967
1716758425985927400,6.625927490234375,7.947093963623047,-0.2750248908996582,-2.319800853729248
1716758425995927300,6.63592724609375,7.248119831085205,0.3517496585845947,-2.3683981895446777
1716758426005927400,6.645927490234375,6.341721534729004,0.69498610496521,-1.8637661933898926
1716758426015927300,6.65592724609375,6.452839374542236,0.6704521179199219,-1.7000212669372559
1716758426025927400,6.665927490234375,5.662335395812988,0.7439020872116089,-0.722653865814209
1716758426035927300,6.67592724609375,5.3557891845703125,0.7315233945846558,-0.4316864013671875
1716758426045927400,6.685927490234375,4.389621257781982,0.1649322509765625,-0.2923297882080078
1716758426055927300,6.69592724609375,4.010618686676025,-0.20101714134216309,-0.1416330337524414
1716758426065927400,6.705927490234375,4.027762413024902,-0.31629228591918945,-0.022119998931884766
1716758426075927800,6.715927734375,3.6644463539123535,-0.6474483013153076,-0.4300403594970703
1716758426085927700,6.725927734375,3.1494393348693848,-0.9839279651641846,-0.598635196685791
1716758426095927800,6.735927734375,2.712677001953125,-1.3662312030792236,-0.08092594146728516
1716758426105927700,6.745927734375,2.250272750854492,-1.1170759201049805,0.36811017990112305
1716758426115927800,6.755927734375,2.2539749145507812,-0.34381985664367676,-0.20256996154785156
1716758426125927700,6.765927734375,2.438621997833252,0.21569383144378662,-1.0047454833984375
1716758426135927800,6.775927734375,2.937924385070801,0.47216594219207764,-0.8709850311279297
1716758426145927700,6.785927734375,2.98252534866333,0.6055827140808105,0.13878726959228516
1716758426155927800,6.795927734375,2.502577781677246,0.526116132736206,1.1266274452209473
1716758426165927700,6.805927734375,1.8540334701538086,0.4647587537765503,1.8454771041870117
1716758426175927800,6.815927734375,1.6496741771697998,0.813042163848877,2.390026092529297
1716758426185928200,6.82592822265625,1.4481196403503418,1.2226650714874268,2.9134974479675293
1716758426195928300,6.83592822265625,1.2456321716308594,1.2075759172439575,3.782604217529297
1716758426205928200,6.84592822265625,1.2120227813720703,1.4311366081237793,4.965051651000977
1716758426215928300,6.85592822265625,0.8814730644226074,1.748066782951355,6.290627479553223
1716758426225928200,6.86592822265625,0.38246893882751465,2.063333749771118,7.414149761199951
1716758426235927800,6.875927734375,0.2827787399291992,2.331570625305176,7.687819957733154
1716758426245927700,6.885927734375,-0.10551762580871582,2.696136474609375,7.366477012634277
1716758426255927800,6.895927734375,0.2293233871459961,2.780311107635498,6.925422668457031
1716758426265927700,6.905927734375,0.2921483516693115,2.8136119842529297,6.23342227935791
1716758426275927300,6.91592724609375,0.5235693454742432,2.384855031967163,4.808759689331055
1716758426285927400,6.925927490234375,0.8659729957580566,1.6022266149520874,3.116137981414795
1716758426295927300,6.93592724609375,0.5881631374359131,1.0109219551086426,1.3424177169799805
1716758426305927400,6.945927490234375,0.43541646003723145,1.172116756439209,0.49286556243896484
1716758426315927300,6.95592724609375,-0.3616386651992798,0.4693809747695923,-0.1973257064819336
1716758426325927700,6.965927734375,-2.2611215114593506,0.9132053852081299,-1.2528676986694336
1716758426335927800,6.975927734375,-2.874715805053711,1.2052903175354004,-3.3511714935302734
1716758426345927700,6.985927734375,-2.265939712524414,1.2739702463150024,-3.721327781677246
1716758426355927800,6.995927734375,-1.0086214542388916,1.2714197635650635,-3.2628297805786133
1716758426365927700,7.005927734375,-0.7620878219604492,1.3626713752746582,-3.261569023132324
1716758426375927300,7.01592724609375,-1.4150711297988892,1.3123470544815063,-2.8745346069335938
1716758426385927400,7.025927490234375,-1.736663818359375,1.0901597738265991,-1.9135961532592773
1716758426395927300,7.03592724609375,-1.8590140342712402,0.5830215215682983,-0.9623260498046875
1716758426405927400,7.045927490234375,-2.153252124786377,-0.11090469360351562,0.324554443359375
1716758426415927300,7.05592724609375,-2.3490796089172363,0.04133570194244385,2.300729274749756
1716758426425927000,7.065927001953125,-2.378950595855713,0.028456926345825195,3.515714645385742
1716758426435927300,7.07592724609375,-2.1404905319213867,0.3148069977760315,4.431269645690918
1716758426445927400,7.085927490234375,-1.1646881103515625,1.3162940740585327,5.092487335205078
1716758426455927300,7.09592724609375,-0.3823263645172119,1.8505868911743164,5.275564193725586
1716758426465927400,7.105927490234375,0.3174140453338623,2.229630470275879,5.02079439163208
1716758426475927300,7.11592724609375,0.535186767578125,2.0816352367401123,4.668571472167969
1716758426485927000,7.125927001953125,0.12056398391723633,1.4716230630874634,4.453780651092529
1716758426495926800,7.1359267578125,-0.23813247680664062,1.6993989944458008,4.20689582824707
1716758426505927000,7.145927001953125,-0.14241933822631836,2.3812875747680664,3.7231364250183105
1716758426515926800,7.1559267578125,0.566025972366333,1.3294216394424438,0.857975959777832
1716758426525927000,7.165927001953125,0.47542810440063477,0.6390843987464905,-0.023095130920410156
1716758426535926800,7.1759267578125,-1.6224596500396729,0.0422855019569397,-0.9023942947387695
1716758426545927400,7.185927490234375,-2.359999895095825,-0.1036725640296936,-2.237215042114258
1716758426555927300,7.19592724609375,-2.6949591636657715,-0.17159855365753174,-2.930272102355957
1716758426565927400,7.205927490234375,-3.9069013595581055,-0.516510009765625,-3.244089126586914
1716758426575927300,7.21592724609375,-3.144402027130127,-1.225904107093811,-4.681093215942383
1716758426585927400,7.225927490234375,-4.380604267120361,-1.770789623260498,-6.9383344650268555
1716758426595927300,7.23592724609375,-5.450839519500732,-1.2753974199295044,-5.847293853759766
1716758426605927400,7.245927490234375,-3.238895893096924,-0.8802288770675659,-2.9909286499023438
1716758426615927300,7.25592724609375,-1.4640741348266602,-0.29929351806640625,-0.27408933639526367
1716758426625927000,7.265927001953125,-1.5993280410766602,0.061301350593566895,1.0122671127319336
1716758426635926800,7.2759267578125,-1.45682954788208,0.3927602171897888,2.4285197257995605
1716758426645927000,7.285927001953125,-0.6039276123046875,1.0491647720336914,4.751487731933594
1716758426655926800,7.2959267578125,-0.2830653190612793,1.331536054611206,7.270018100738525
1716758426665927000,7.305927001953125,-0.08031463623046875,2.373321533203125,10.13630485534668
1716758426675926800,7.3159267578125,0.7103714942932129,2.584317922592163,11.991250038146973
1716758426685927400,7.325927490234375,1.6802539825439453,2.7294437885284424,13.280534744262695
1716758426695927300,7.33592724609375,2.4193572998046875,2.290034532546997,14.379895210266113
1716758426705927400,7.345927490234375,3.2116312980651855,1.4205831289291382,15.921514511108398
1716758426715927300,7.35592724609375,2.532809257507324,0.9942590594291687,17.411731719970703
1716758426725927400,7.365927490234375,1.5709633827209473,0.8678709268569946,17.8613338470459
1716758426735926800,7.3759267578125,1.553619384765625,1.3461201190948486,16.71283721923828
1716758426745927000,7.385927001953125,2.081696033477783,2.5413131713867188,15.75524616241455
1716758426755926800,7.3959267578125,2.260859966278076,3.041231155395508,13.134568214416504
1716758426765927000,7.405927001953125,1.5638861656188965,3.2209973335266113,9.442215919494629
1716758426775926800,7.4159267578125,0.4347696304321289,2.8433940410614014,6.203064918518066
1716758426785927000,7.425927001953125,-0.7395696640014648,2.0018086433410645,4.17072057723999
1716758426795926800,7.4359267578125,-1.3903093338012695,1.0276544094085693,3.4955508708953857
1716758426805927000,7.445927001953125,-1.8220853805541992,0.566244900226593,3.6854000091552734
1716758426815926800,7.4559267578125,-2.5559043884277344,0.07155078649520874,3.7147841453552246
1716758426825927400,7.465927490234375,-2.8138351440429688,-0.3495783805847168,2.418787956237793
1716758426835927300,7.47592724609375,-4.03253173828125,-0.5507230162620544,0.22523880004882812
1716758426845927000,7.485927001953125,-4.682624816894531,-0.8135949373245239,-1.8492584228515625
1716758426855926800,7.4959267578125,-4.637735366821289,-0.31135571002960205,-2.089327335357666
1716758426865927000,7.505927001953125,-5.473404884338379,-0.613619327545166,-2.46480131149292
1716758426875926800,7.5159267578125,-7.002678871154785,-0.613344669342041,-2.8722105026245117
1716758426885927000,7.525927001953125,-7.904114723205566,0.23232460021972656,-4.006715774536133
1716758426895926800,7.5359267578125,-8.411898612976074,0.34925782680511475,-5.052504062652588
1716758426905927000,7.545927001953125,-8.037174224853516,-0.02559584379196167,-4.879321575164795
1716758426915926800,7.5559267578125,-7.110816955566406,-0.4223346710205078,-4.193378448486328
1716758426925927000,7.565927001953125,-5.384925842285156,-0.14096927642822266,-2.4574804306030273
1716758426935927000,7.575927001953125,-3.0430288314819336,0.01457524299621582,0.12783241271972656
1716758426945927000,7.585927001953125,-1.3050975799560547,-0.12106752395629883,2.3995985984802246
1716758426955927000,7.595927001953125,1.1330370903015137,0.2963476777076721,5.31205940246582
1716758426965927000,7.605927001953125,3.2272543907165527,0.899005115032196,9.236906051635742
1716758426975927000,7.615927001953125,5.471185684204102,0.7241735458374023,12.486957550048828
1716758426985926400,7.625926513671875,6.99688720703125,0.6303024888038635,14.606769561767578
1716758426995926500,7.635926513671875,8.576242446899414,0.8377758860588074,16.288293838500977
1716758427005926400,7.645926513671875,10.280293464660645,2.3728127479553223,14.146295547485352
1716758427015926500,7.655926513671875,12.957443237304688,5.489250183105469,16.24333381652832
1716758427025926400,7.665926513671875,13.918060302734375,7.688190937042236,19.28586769104004
1716758427035926500,7.675926513671875,10.699504852294922,6.777163028717041,16.58479118347168
1716758427045926400,7.685926513671875,5.8954548835754395,4.6690850257873535,9.313760757446289
1716758427055926500,7.695926513671875,3.5842909812927246,4.1284003257751465,3.6376900672912598
1716758427065926400,7.705926513671875,1.8913798332214355,4.237353324890137,-0.05276918411254883
1716758427075927000,7.715927001953125,0.40819454193115234,3.4523632526397705,-3.62863826751709
1716758427085927000,7.725927001953125,-0.718134880065918,1.8081717491149902,-6.390147686004639
1716758427095927000,7.735927001953125,-1.680729866027832,0.7307803630828857,-7.269773006439209
1716758427105927000,7.745927001953125,-2.4389209747314453,-0.2630881071090698,-6.991023540496826
1716758427115927000,7.755927001953125,-2.406588077545166,-1.3713021278381348,-6.367264747619629
1716758427125926400,7.765926513671875,-1.647453784942627,-2.1068668365478516,-5.060609340667725
1716758427135926500,7.775926513671875,-0.7292428016662598,-2.585615634918213,-3.2586889266967773
1716758427145926400,7.785926513671875,-0.04667472839355469,-2.8448026180267334,-1.5846400260925293
1716758427155926500,7.795926513671875,-0.05637931823730469,-2.7907533645629883,0.7003989219665527
1716758427165926400,7.805926513671875,-0.2852458953857422,-2.364504814147949,3.447265863418579
1716758427175927000,7.815927001953125,-0.21427631378173828,-1.4100403785705566,5.680671215057373
1716758427185927400,7.825927490234375,0.7020010948181152,-0.5381646156311035,6.87617301940918
1716758427195927600,7.835927490234375,2.4211277961730957,0.14011573791503906,7.206272602081299
1716758427205927400,7.845927490234375,5.025514602661133,1.3155463933944702,7.556121349334717
1716758427215927600,7.855927490234375,6.580426216125488,3.270272970199585,7.823835372924805
1716758427225927400,7.865927490234375,6.738106727600098,4.6262946128845215,7.601499557495117
1716758427235927300,7.87592724609375,5.802555561065674,4.728667736053467,7.245765209197998
1716758427245927400,7.885927490234375,3.9092791080474854,4.052679061889648,5.898626327514648
1716758427255927300,7.89592724609375,2.830414056777954,3.7067818641662598,4.288962364196777
1716758427265927700,7.905927734375,2.535094976425171,3.485893726348877,2.675206184387207
1716758427275927800,7.915927734375,2.505614995956421,2.8027663230895996,0.9889736175537109
1716758427285927700,7.925927734375,2.4273242950439453,2.170374870300293,-0.6661429405212402
1716758427295927300,7.93592724609375,3.128761053085327,1.628464937210083,-1.6089305877685547
1716758427305927400,7.945927490234375,3.7589573860168457,0.882908284664154,-2.523589611053467
1716758427315927600,7.955927490234375,4.007080078125,0.04662942886352539,-3.017078399658203
1716758427325928000,7.965927978515625,3.6217689514160156,-0.8037855625152588,-3.307999610900879
1716758427335927800,7.975927734375,3.4125866889953613,-1.1307873725891113,-3.531996726989746
1716758427345928000,7.985927978515625,3.8691768646240234,-1.2368791103363037,-4.16046142578125
1716758427355927800,7.995927734375,4.350104331970215,-1.1425203084945679,-4.414051055908203
1716758427365928000,8.005927978515626,4.959321022033691,-0.8397574424743652,-4.129624366760254
1716758427375927300,8.01592724609375,5.227298736572266,-0.285083532333374,-3.9551620483398438
1716758427385927400,8.025927490234375,5.0810041427612305,0.38461971282958984,-4.02690315246582
1716758427395927300,8.03592724609375,4.730907440185547,0.9623258709907532,-4.309436798095703
1716758427405927400,8.045927490234375,4.414690971374512,1.5317598581314087,-4.22836971282959
1716758427415927300,8.05592724609375,3.8943722248077393,1.9615554809570312,-3.9842090606689453
1716758427425927400,8.065927490234374,3.6817822456359863,2.1056158542633057,-3.673177719116211
1716758427435927800,8.075927734375,3.585352659225464,1.9207755327224731,-3.5065202713012695
1716758427445928000,8.085927978515626,3.1617140769958496,1.774699330329895,-3.1948537826538086
1716758427455927800,8.095927734375,3.201923370361328,1.464722990989685,-2.90030574798584
1716758427465928000,8.105927978515625,3.276336193084717,1.1323717832565308,-2.7088613510131836
1716758427475927300,8.11592724609375,3.517186164855957,0.5484577417373657,-2.6769285202026367
1716758427485927000,8.125927001953125,3.864301919937134,0.1401515007019043,-2.76192569732666
1716758427495927000,8.135927001953124,4.098518371582031,-0.324662446975708,-3.2888574600219727
1716758427505927000,8.145927001953124,4.348819255828857,-0.8269355297088623,-4.09222412109375
1716758427515927000,8.155927001953126,4.516100883483887,-1.154515266418457,-5.260022163391113
1716758427525927000,8.165927001953126,5.038043022155762,-1.0604841709136963,-6.156203269958496
1716758427535927000,8.175927001953125,6.000312328338623,-0.670809268951416,-6.546911239624023
1716758427545927000,8.185927001953125,7.087399005889893,-0.1309375762939453,-6.579479217529297
1716758427555927000,8.195927001953125,7.765629768371582,0.018599867820739746,-6.578675270080566
1716758427565926400,8.205926513671875,8.32047176361084,-0.11980557441711426,-7.423788070678711
1716758427575927000,8.215927001953125,8.454617500305176,-0.3381214141845703,-8.921669960021973
1716758427585927000,8.225927001953124,8.271536827087402,-0.3390688896179199,-8.924593925476074
1716758427595927300,8.23592724609375,8.155915260314941,-0.7228430509567261,-10.673666954040527
1716758427605927400,8.245927490234376,6.997217655181885,-1.2116121053695679,-13.400358200073242
1716758427615927300,8.25592724609375,6.549879550933838,-1.352520227432251,-14.094606399536133
1716758427625927000,8.265927001953125,5.826251029968262,-1.35233736038208,-14.180391311645508
1716758427635926800,8.2759267578125,5.051776885986328,-1.422689437866211,-13.839609146118164
1716758427645927000,8.285927001953125,4.498694896697998,-1.4922500848770142,-13.4771089553833
1716758427655927300,8.29592724609375,4.274747848510742,-1.609756588935852,-12.886530876159668
1716758427665927400,8.305927490234374,4.235803127288818,-1.702670931816101,-12.344833374023438
1716758427675927300,8.31592724609375,4.170599937438965,-1.995735764503479,-12.545620918273926
1716758427685927700,8.325927734375,3.937079906463623,-1.842422366142273,-12.110530853271484
1716758427695927800,8.335927734375,4.221700191497803,-1.804932713508606,-10.77479362487793
1716758427705927700,8.345927734375,5.11826753616333,-1.703360915184021,-9.367809295654297
1716758427715927800,8.355927734375,6.141576290130615,-1.2966824769973755,-7.923407554626465
1716758427725927700,8.365927734375,7.141040802001953,-0.8944001197814941,-6.331884384155273
1716758427735927300,8.37592724609375,7.607985496520996,-0.31590569019317627,-4.7281389236450195
1716758427745927400,8.385927490234375,7.563948631286621,0.09910428524017334,-3.8535213470458984
1716758427755927300,8.39592724609375,7.278010845184326,0.3213796615600586,-3.932504653930664
1716758427765927400,8.405927490234374,7.46014404296875,1.050701379776001,-3.83730411529541
1716758427775927300,8.41592724609375,7.197176933288574,1.6128244400024414,-3.82547664642334
1716758427785927400,8.425927490234375,6.626461505889893,1.693687915802002,-3.9232378005981445
1716758427795927300,8.43592724609375,6.215170860290527,1.3509752750396729,-3.458582878112793
1716758427805927400,8.445927490234375,5.820235252380371,0.7720812559127808,-2.816483497619629
1716758427815927300,8.45592724609375,5.2630109786987305,0.3959578275680542,-1.9841489791870117
1716758427825927700,8.465927734375,4.644721984863281,0.6672306060791016,-0.5650835037231445
1716758427835927800,8.475927734375,4.07966423034668,1.2474634647369385,1.4052600860595703
1716758427845927700,8.485927734375,4.196271896362305,1.5305144786834717,3.3901777267456055
1716758427855927800,8.495927734375,4.5087690353393555,1.5759451389312744,4.897676467895508
1716758427865927700,8.505927734375,3.9315505027770996,1.4438992738723755,5.456136703491211
1716758427875927300,8.51592724609375,3.697293281555176,1.2926905155181885,5.657685279846191
1716758427885927400,8.525927490234375,3.5321240425109863,1.1465141773223877,5.430904388427734
1716758427895927300,8.53592724609375,3.7050085067749023,0.9763208627700806,4.518319129943848
1716758427905927400,8.545927490234375,3.3499605655670166,0.8782881498336792,3.614755153656006
1716758427915927300,8.55592724609375,2.9906909465789795,0.8979120254516602,2.581019401550293
1716758427925927400,8.565927490234374,2.723937749862671,1.1452902555465698,1.6331968307495117
1716758427935927300,8.57592724609375,2.476797342300415,1.3144521713256836,0.8515963554382324
1716758427945927400,8.585927490234376,2.491241693496704,1.4044880867004395,0.05663347244262695
1716758427955926800,8.5959267578125,2.5056252479553223,1.455012559890747,-0.7967529296875
1716758427965927000,8.605927001953125,2.4945297241210938,1.271018624305725,-1.321922779083252
1716758427975926800,8.6159267578125,2.651228427886963,0.9658510088920593,-1.4763035774230957
1716758427985926400,8.625926513671875,2.5790328979492188,0.6058657765388489,-1.4122719764709473
1716758427995926500,8.635926513671874,2.3119611740112305,0.37347322702407837,-0.8199849128723145
1716758428005926400,8.645926513671874,2.255734920501709,0.24426692724227905,0.09798049926757812
1716758428015926500,8.655926513671876,2.5778274536132812,0.30882978439331055,0.8806328773498535
1716758428025926400,8.665926513671875,2.862083911895752,0.7778368592262268,1.8085813522338867
1716758428035926500,8.675926513671875,3.2066774368286133,1.1122987270355225,2.7566070556640625
1716758428045927000,8.685927001953125,3.393674373626709,1.4749484062194824,4.034562587738037
1716758428055926800,8.6959267578125,3.3344883918762207,1.7406758069992065,5.3487067222595215
1716758428065927000,8.705927001953125,3.1506314277648926,1.8812683820724487,6.0260162353515625
1716758428075927300,8.71592724609375,2.9888968467712402,1.9822551012039185,6.209908485412598
1716758428085927400,8.725927490234374,2.685214042663574,1.9324631690979004,6.1786932945251465
1716758428095927300,8.73592724609375,2.184908390045166,1.8213145732879639,5.952758312225342
1716758428105927400,8.745927490234376,2.0531115531921387,1.688900351524353,5.467850685119629
1716758428115927300,8.75592724609375,2.1254796981811523,2.178300619125366,5.0731987953186035
1716758428125927000,8.765927001953125,2.0118303298950195,2.3488919734954834,4.968189716339111
1716758428135926800,8.7759267578125,1.5679736137390137,2.197385787963867,4.435888767242432
1716758428145927000,8.785927001953125,1.0147933959960938,1.6535775661468506,3.473665475845337
1716758428155926800,8.7959267578125,0.6337032318115234,1.1069713830947876,2.5033411979675293
1716758428165927000,8.805927001953124,0.42175865173339844,0.5743017196655273,1.7424789667129517
1716758428175926800,8.8159267578125,0.3599567413330078,0.22098636627197266,1.1863973140716553
1716758428185927400,8.825927490234376,0.1668691635131836,0.05066514015197754,0.8046672344207764
1716758428195927800,8.835927734375,0.06935405731201172,0.22106891870498657,0.9140481948852539
1716758428205928000,8.845927978515626,0.2634439468383789,0.33019137382507324,1.4542597532272339
1716758428215927800,8.855927734375,0.4524879455566406,0.4128838777542114,1.9843993186950684
1716758428225928000,8.865927978515625,0.5557918548583984,0.43182373046875,2.477480411529541
1716758428235927800,8.875927734375,0.5184669494628906,0.5313148498535156,2.583186149597168
1716758428245927700,8.885927734375,0.42100048065185547,0.8004792332649231,2.4916701316833496
1716758428255927800,8.895927734375,0.5398797988891602,1.3548057079315186,2.4201109409332275
1716758428265927700,8.905927734375,0.5359020233154297,1.642390489578247,2.15230393409729
1716758428275927800,8.915927734375,0.35039329528808594,1.6960784196853638,2.367429494857788
1716758428285927700,8.925927734375,0.09585857391357422,1.3748646974563599,3.211231231689453
1716758428295927800,8.935927734375,0.7396821975708008,1.076876163482666,2.5300986766815186
1716758428305927700,8.945927734375,1.0396432876586914,0.8921464681625366,2.651546001434326
1716758428315927800,8.955927734375,1.0856094360351562,1.068190097808838,3.4500536918640137
1716758428325928200,8.96592822265625,0.9004011154174805,1.0045331716537476,4.404362201690674
1716758428335928300,8.97592822265625,0.1062307357788086,1.2344567775726318,5.621006011962891
1716758428345927700,8.985927734375,0.7566719055175781,1.8301641941070557,5.558182239532471
1716758428355927800,8.995927734375,0.32213306427001953,2.284048318862915,4.885768890380859
1716758428365927700,9.005927734375,0.09968757629394531,2.815187931060791,3.74187970161438
1716758428375927300,9.01592724609375,-0.09428691864013672,2.6744658946990967,2.6144208908081055
1716758428385927400,9.025927490234375,-0.2124958038330078,2.208071708679199,1.909880518913269
1716758428395927300,9.03592724609375,-0.7723932266235352,1.981252670288086,1.9635366201400757
1716758428405927400,9.045927490234375,-1.2225875854492188,2.1815102100372314,2.7616450786590576
1716758428415927300,9.05592724609375,-1.1433935165405273,2.7533836364746094,3.8827362060546875
1716758428425927400,9.065927490234374,-0.2675046920776367,3.282231569290161,4.998353004455566
1716758428435927300,9.07592724609375,1.0350456237792969,3.44775128364563,6.46926736831665
1716758428445927400,9.085927490234376,2.1376614570617676,2.8518238067626953,7.287696838378906
1716758428455927300,9.09592724609375,2.1436104774475098,2.303992986679077,7.081771373748779
1716758428465927400,9.105927490234375,1.7911581993103027,2.088465690612793,6.667428016662598
1716758428475927300,9.11592724609375,0.8299808502197266,1.4499318599700928,5.155492782592773
1716758428485927000,9.125927001953125,-0.7415971755981445,0.7288404703140259,3.309345006942749
1716758428495926500,9.135926513671874,-1.6887884140014648,0.0449674129486084,1.9626989364624023
1716758428505926400,9.145926513671874,-2.2039794921875,-0.4057133197784424,0.7473926544189453
1716758428515926500,9.155926513671876,-2.4179277420043945,-0.5156124830245972,-0.3393247127532959
1716758428525926400,9.165926513671875,-2.420042037963867,-0.6751948595046997,-0.9662785530090332
1716758428535926500,9.175926513671875,-2.1430702209472656,-0.8367538452148438,-1.3922147750854492
1716758428545926400,9.185926513671875,-1.5123205184936523,-0.7582497596740723,-1.315964698791504
1716758428555926500,9.195926513671875,-0.6711626052856445,-0.5620166063308716,-0.7694544792175293
1716758428565926400,9.205926513671875,0.13330650329589844,-0.6605867147445679,-0.12564849853515625
1716758428575926800,9.2159267578125,0.8723301887512207,-0.5919708013534546,0.4264225959777832
1716758428585927000,9.225927001953124,1.587632179260254,-0.09474766254425049,0.8638501167297363
1716758428595926800,9.2359267578125,2.4889793395996094,0.5644016265869141,1.0056586265563965
1716758428605927000,9.245927001953126,3.5740208625793457,1.3803797960281372,1.0051369667053223
1716758428615926800,9.2559267578125,4.545691013336182,1.7639477252960205,1.4839701652526855
1716758428625926400,9.265926513671875,5.8660888671875,1.7506165504455566,2.234658718109131
1716758428635926500,9.275926513671875,7.168424606323242,1.7036523818969727,3.217237949371338
1716758428645926400,9.285926513671875,8.346114158630371,2.081282615661621,4.398921489715576
1716758428655926500,9.295926513671875,8.837045669555664,2.7583558559417725,5.923973560333252
1716758428665926400,9.305926513671874,9.096858978271484,2.505908966064453,7.169294834136963
1716758428675926500,9.315926513671876,8.910192489624023,2.007899761199951,7.519996166229248
1716758428685927000,9.325927001953126,8.759982109069824,2.3731369972229004,6.483578205108643
1716758428695926800,9.3359267578125,8.264222145080566,2.502068281173706,4.723352432250977
1716758428705927000,9.345927001953125,7.527886867523193,2.376476764678955,4.3693461418151855
1716758428715926800,9.3559267578125,7.639350891113281,2.252805709838867,3.54129695892334
1716758428725927000,9.365927001953125,8.492307662963867,2.110276460647583,4.322879314422607
1716758428735926800,9.3759267578125,7.90414571762085,1.4532825946807861,5.658796787261963
1716758428745927000,9.385927001953124,7.266262531280518,0.8196630477905273,6.103575229644775
1716758428755926800,9.3959267578125,6.579075336456299,0.2762313187122345,6.333080291748047
1716758428765927000,9.405927001953126,6.398808002471924,-0.21065732836723328,6.22630500793457
1716758428775926800,9.4159267578125,6.507356643676758,-0.19178906083106995,5.674038410186768
1716758428785927000,9.425927001953125,6.6015520095825195,0.11753156781196594,4.667612075805664
1716758428795926800,9.4359267578125,5.845483303070068,0.47989732027053833,3.569581985473633
1716758428805927000,9.445927001953125,5.285122871398926,0.8952568173408508,2.689208984375
1716758428815926800,9.4559267578125,4.468723773956299,0.86027592420578,2.101797103881836
1716758428825927400,9.465927490234375,4.133246421813965,0.7375165224075317,2.0775656700134277
1716758428835927300,9.47592724609375,4.509366512298584,0.9711748361587524,2.5527162551879883
1716758428845927400,9.485927490234374,5.192502021789551,1.3762484788894653,2.342392921447754
1716758428855927300,9.49592724609375,5.354571342468262,1.5047084093093872,2.2397007942199707
1716758428865927400,9.505927490234376,5.118026256561279,1.4082372188568115,2.1374354362487793
1716758428875926800,9.5159267578125,4.47260856628418,1.4180854558944702,1.7607817649841309
1716758428885927000,9.525927001953125,3.7383933067321777,1.2067610025405884,0.9570646286010742
1716758428895926800,9.5359267578125,2.9513988494873047,1.2368643283843994,-0.41255712509155273
1716758428905927000,9.545927001953125,2.528062343597412,1.6433484554290771,-1.5729551315307617
1716758428915926800,9.5559267578125,2.1051554679870605,1.788130760192871,-2.056485652923584
1716758428925927000,9.565927001953124,1.3687658309936523,1.504746437072754,-2.031834125518799
1716758428935927300,9.57592724609375,1.1569194793701172,1.0920145511627197,-1.9007596969604492
1716758428945927400,9.585927490234376,1.0487480163574219,0.6781291365623474,-1.7831239700317383
1716758428955927300,9.59592724609375,1.080972671508789,0.1525527536869049,-1.7043437957763672
1716758428965927400,9.605927490234375,1.4654645919799805,-0.3030395209789276,-1.677922248840332
1716758428975927300,9.61592724609375,1.9119038581848145,-0.629615306854248,-1.9797320365905762
1716758428985927000,9.625927001953125,2.1406564712524414,-0.9460545182228088,-2.4907467365264893
1716758428995926800,9.6359267578125,2.045431613922119,-1.0677876472473145,-2.692758560180664
1716758429005927000,9.645927001953124,1.8064589500427246,-0.9041067957878113,-2.7772600650787354
1716758429015926800,9.6559267578125,1.6591753959655762,-0.6868547201156616,-2.710906505584717
1716758429025927000,9.665927001953126,1.5487422943115234,-0.3729216158390045,-2.4318044185638428
1716758429035926800,9.6759267578125,1.6209015846252441,0.02773118019104004,-1.9421677589416504
1716758429045927000,9.685927001953125,2.037724018096924,0.6107407808303833,-1.9935014247894287
1716758429055926800,9.6959267578125,1.831275463104248,0.9449021816253662,-2.4092886447906494
1716758429065927000,9.705927001953125,1.5545001029968262,1.1485042572021484,-2.946202516555786
1716758429075927300,9.71592724609375,1.0513277053833008,1.149143934249878,-3.1523184776306152
1716758429085927400,9.725927490234374,0.7371950149536133,1.0052599906921387,-3.5199434757232666
1716758429095927300,9.73592724609375,0.3487586975097656,1.0645389556884766,-3.758504867553711
1716758429105927400,9.745927490234376,0.02836894989013672,0.8993650674819946,-3.7150931358337402
1716758429115927300,9.75592724609375,0.011206626892089844,1.0290637016296387,-3.7497453689575195
1716758429125927000,9.765927001953125,0.0688333511352539,0.3293665945529938,-4.2132673263549805
1716758429135926800,9.7759267578125,-0.5311498641967773,-0.17181581258773804,-4.5313920974731445
1716758429145927000,9.785927001953125,-1.4990406036376953,-0.4120888113975525,-4.847025394439697
1716758429155926800,9.7959267578125,-2.048182487487793,-0.5476322770118713,-5.368905067443848
1716758429165927000,9.805927001953124,-2.1524200439453125,-0.3281592130661011,-5.949986457824707
1716758429175926800,9.8159267578125,-2.1619434356689453,-0.2348044514656067,-6.170134544372559
1716758429185927000,9.825927001953126,-2.106508255004883,-0.0017836689949035645,-5.685152053833008
1716758429195927000,9.835927001953126,-2.222256660461426,0.08427983522415161,-5.265148639678955
1716758429205927000,9.845927001953125,-2.1619529724121094,-0.12244260311126709,-5.353268623352051
1716758429215927000,9.855927001953125,-2.1938552856445312,-0.5563624501228333,-5.394989013671875
1716758429225927000,9.865927001953125,-2.499786376953125,-0.7680674195289612,-5.527453899383545
1716758429235926500,9.875926513671875,-2.455203056335449,-0.8133958578109741,-5.596222877502441
1716758429245926400,9.885926513671874,-2.774463653564453,-0.8296723365783691,-6.095240592956543
1716758429255926500,9.895926513671874,-3.147249221801758,-0.9596471786499023,-6.9610676765441895
1716758429265926400,9.905926513671876,-3.3533735275268555,-0.8586708307266235,-7.248167514801025
1716758429275926500,9.915926513671875,-3.516254425048828,-0.8621997833251953,-7.240426063537598
1716758429285926400,9.925926513671875,-3.504805564880371,-0.934391975402832,-7.34561824798584
1716758429295926500,9.935926513671875,-2.8965606689453125,-1.1194027662277222,-7.719946384429932
1716758429305926400,9.945926513671875,-1.9809513092041016,-1.2136790752410889,-7.920726299285889
1716758429315926500,9.955926513671875,-1.5532093048095703,-1.1042834520339966,-8.00691032409668
1716758429325927000,9.965927001953125,-1.6352958679199219,-1.067793369293213,-8.213774681091309
1716758429335927000,9.975927001953124,-2.561861991882324,-1.2299407720565796,-8.354108810424805
1716758429345927000,9.985927001953126,-3.6805648803710938,-1.5350555181503296,-8.792298316955566
1716758429355927000,9.995927001953126,-4.509038925170898,-1.8280363082885742,-9.864031791687012
1716758429365927400,10.005927490234376,-4.99953556060791,-2.0898826122283936,-10.966611862182617
1716758429375927000,10.015927001953125,-5.362645149230957,-2.384962558746338,-11.911467552185059
1716758429385927000,10.025927001953125,-5.242983818054199,-2.4393625259399414,-12.097305297851562
1716758429395927000,10.035927001953125,-4.717893600463867,-2.14618182182312,-11.440004348754883
1716758429405927000,10.045927001953125,-4.5991411209106445,-1.5543898344039917,-10.433564186096191
1716758429415927000,10.055927001953124,-4.924551963806152,-1.1112552881240845,-9.744811058044434
1716758429425927000,10.065927001953124,-4.915144920349121,-0.7718274593353271,-8.873635292053223
1716758429435927300,10.07592724609375,-4.528761863708496,-0.4768974781036377,-8.051481246948242
1716758429445927400,10.085927490234376,-4.054196357727051,0.010254502296447754,-7.411511421203613
1716758429455927300,10.09592724609375,-3.3609371185302734,0.43918973207473755,-6.952013969421387
1716758429465927400,10.105927490234375,-2.3309316635131836,0.6914283037185669,-6.329565048217773
1716758429475927300,10.11592724609375,-1.506429672241211,0.8341103792190552,-5.747594833374023
1716758429485927400,10.125927490234375,-1.0396671295166016,0.9018727540969849,-4.990913391113281
1716758429495927300,10.13592724609375,-0.8817663192749023,0.735844612121582,-4.262803554534912
1716758429505927400,10.145927490234374,-0.8163080215454102,0.5821901559829712,-3.8076202869415283
1716758429515927300,10.15592724609375,-0.6618404388427734,0.384881854057312,-3.395756244659424
1716758429525927400,10.165927490234376,-0.3015775680541992,0.42445480823516846,-2.7310376167297363
1716758429535927300,10.17592724609375,0.44631385803222656,0.4795335829257965,-1.8192765712738037
1716758429545927700,10.185927734375,1.3128414154052734,0.4997596740722656,-1.0039923191070557
1716758429555927800,10.195927734375,1.8870048522949219,0.47120651602745056,-0.3356931209564209
1716758429565927700,10.205927734375,2.2139573097229004,0.3837927579879761,-0.03895676136016846
1716758429575927800,10.215927734375,2.2036566734313965,0.39245331287384033,0.180871844291687
1716758429585927700,10.225927734375,1.7239680290222168,0.5920608639717102,0.6323237419128418
1716758429595927800,10.235927734375,1.0511608123779297,0.7694249749183655,1.0320167541503906
1716758429605927700,10.245927734375,0.7083282470703125,0.5040003061294556,0.9311445951461792
1716758429615927800,10.255927734375,1.1044416427612305,-0.19649887084960938,0.005877494812011719
1716758429625927400,10.265927490234375,1.0034608840942383,-0.5136136412620544,-1.0164375305175781
1716758429635927300,10.27592724609375,0.0667562484741211,-0.1128726601600647,-1.3307580947875977
1716758429645927400,10.285927490234375,-0.3702106475830078,0.31203046441078186,-1.251767635345459
1716758429655927300,10.29592724609375,0.16840076446533203,0.6006004810333252,-1.193493127822876
1716758429665927000,10.305927001953124,0.6053733825683594,0.9178916215896606,-1.480790376663208
1716758429675926800,10.3159267578125,0.6093044281005859,1.2559776306152344,-1.2744114398956299
1716758429685927400,10.325927490234376,0.38001155853271484,1.4821364879608154,-1.1781120300292969
1716758429695927300,10.33592724609375,-0.48871326446533203,1.6796021461486816,-1.549023151397705
1716758429705927400,10.345927490234375,-0.8873519897460938,1.8244223594665527,-1.8635823726654053
1716758429715927300,10.35592724609375,-0.6962833404541016,1.8153043985366821,-2.0438997745513916
1716758429725927400,10.365927490234375,-0.2927560806274414,1.7614693641662598,-1.8734416961669922
1716758429735926800,10.3759267578125,0.1322183609008789,1.7425930500030518,-1.5818047523498535
1716758429745927000,10.385927001953124,0.38334083557128906,1.792708158493042,-1.3341114521026611
1716758429755926800,10.3959267578125,0.674870491027832,1.9725826978683472,-1.0469744205474854
1716758429765927000,10.405927001953126,0.9765758514404297,2.004441022872925,-0.4464142322540283
1716758429775926800,10.4159267578125,1.1461105346679688,1.8355803489685059,0.07951545715332031
1716758429785927000,10.425927001953125,1.219782829284668,1.6969852447509766,0.1384882926940918
1716758429795926800,10.4359267578125,1.4563665390014648,1.7301703691482544,0.05009567737579346
1716758429805927000,10.445927001953125,1.7592782974243164,1.8190299272537231,0.14179658889770508
1716758429815927300,10.45592724609375,1.8374805450439453,1.889790654182434,0.198949933052063
1716758429825927700,10.465927734375,1.8466901779174805,1.9598695039749146,0.3662419319152832
1716758429835927800,10.475927734375,2.1109352111816406,1.870004653930664,0.40124523639678955
1716758429845927400,10.485927490234374,2.3071980476379395,1.5829752683639526,0.27396059036254883
1716758429855927300,10.49592724609375,2.3719120025634766,1.3160617351531982,0.19053447246551514
1716758429865927400,10.505927490234376,2.1816043853759766,0.9564328789710999,0.26649904251098633
1716758429875927300,10.51592724609375,1.9662361145019531,0.6298779249191284,0.3892861604690552
1716758429885927400,10.525927490234375,1.6442804336547852,0.6158205270767212,0.5709119439125061
1716758429895927300,10.53592724609375,1.1819190979003906,0.7124936580657959,0.8902499079704285
1716758429905927700,10.545927734375,1.105494499206543,0.5282951593399048,1.1850273609161377
1716758429915927800,10.555927734375,0.8922243118286133,-0.10211488604545593,1.58168363571167
1716758429925927700,10.565927734375,0.7671442031860352,-0.9818616509437561,1.8493802547454834
1716758429935927800,10.575927734375,0.9261102676391602,-0.986599326133728,2.401357412338257
1716758429945927700,10.585927734375,1.1512575149536133,-0.3351864516735077,2.9321577548980713
1716758429955927800,10.595927734375,1.303776741027832,0.49108415842056274,3.2704381942749023
1716758429965927700,10.605927734375,1.4236516952514648,0.925267219543457,3.487555742263794
1716758429975927800,10.615927734375,1.5442914962768555,1.0691012144088745,3.5024147033691406
1716758429985927400,10.625927490234375,1.2707691192626953,1.0467122793197632,3.239811420440674
1716758429995927300,10.63592724609375,1.249948501586914,0.941179633140564,3.170619487762451
1716758430005927400,10.645927490234374,1.4078741073608398,0.8123875856399536,3.3128838539123535
1716758430015927300,10.65592724609375,1.6534042358398438,0.6342657208442688,3.4956161975860596
1716758430025927400,10.665927490234376,1.6224403381347656,0.33163273334503174,3.665825128555298
1716758430035927300,10.67592724609375,1.2622690200805664,0.015263557434082031,4.026534557342529
1716758430045927400,10.685927490234375,1.1858816146850586,-0.3272375464439392,4.729757308959961
1716758430055927300,10.69592724609375,1.4580259323120117,-0.4141101837158203,5.431622505187988
1716758430065927400,10.705927490234375,1.516688346862793,-0.46487993001937866,5.926574230194092
1716758430075927800,10.715927734375,1.5058507919311523,-0.4053279161453247,6.0605669021606445
1716758430085927700,10.725927734375,1.423349380493164,-0.27305763959884644,5.706231117248535
1716758430095927800,10.735927734375,1.1373605728149414,-0.1428546905517578,5.27786111831665
1716758430105927700,10.745927734375,0.7314062118530273,0.05249208211898804,4.955390930175781
1716758430115927300,10.75592724609375,0.5284891128540039,0.27990788221359253,4.724972248077393
1716758430125927000,10.765927001953125,0.18591880798339844,0.5254329442977905,4.656327247619629
1716758430135926800,10.7759267578125,-0.08826160430908203,0.692546010017395,4.9044036865234375
1716758430145927000,10.785927001953125,0.005167961120605469,0.8023691773414612,5.308503150939941
1716758430155926800,10.7959267578125,0.1984395980834961,0.7656925916671753,5.650060653686523
1716758430165927000,10.805927001953124,0.44140625,0.7823559045791626,5.910356044769287
1716758430175926800,10.8159267578125,0.6193628311157227,0.8636256456375122,6.246881484985352
1716758430185927400,10.825927490234376,0.7825117111206055,1.0177826881408691,6.562127113342285
1716758430195927300,10.83592724609375,1.1060724258422852,1.0442593097686768,6.703672409057617
1716758430205927200,10.84592724609375,1.227095603942871,1.074036955833435,6.927918910980225
1716758430215927300,10.85592724609375,1.165114402770996,1.0526381731033325,7.1160478591918945
1716758430225927200,10.86592724609375,1.1071300506591797,0.9600179195404053,7.213349342346191
1716758430235927300,10.87592724609375,1.1995506286621094,0.8715164661407471,7.192240238189697
1716758430245927200,10.88592724609375,1.2721986770629883,0.6985106468200684,6.715567588806152
1716758430255927300,10.89592724609375,1.3383064270019531,0.5931180715560913,6.24252986907959
1716758430265927700,10.905927734375,1.2008209228515625,0.6115966439247131,6.160555362701416
1716758430275927800,10.915927734375,0.7767877578735352,0.7532550692558289,6.336033821105957
1716758430285927700,10.925927734375,0.6459388732910156,0.8767573833465576,6.515209197998047
1716758430295927800,10.935927734375,0.8364849090576172,0.9260165691375732,6.432360649108887
1716758430305927700,10.945927734375,0.9646463394165039,0.8639860153198242,6.173874855041504
1716758430315927800,10.955927734375,1.0215797424316406,0.7783398628234863,6.025787830352783
1716758430325928200,10.96592822265625,1.2344017028808594,0.653557300567627,5.8541107177734375
1716758430335928300,10.97592822265625,1.3457956314086914,0.6010384559631348,5.717049598693848
1716758430345928200,10.98592822265625,1.4870271682739258,0.9666880965232849,5.7163286209106445
1716758430355928300,10.99592822265625,1.5434999465942383,1.3014695644378662,5.735976219177246
1716758430365928200,11.00592822265625,1.4528875350952148,1.5111382007598877,5.595208168029785
1716758430375927800,11.015927734375,1.402308464050293,1.4904298782348633,5.410640239715576
1716758430385927700,11.025927734375,1.4167289733886719,1.0251116752624512,5.490297317504883
1716758430395927800,11.035927734375,1.742629051208496,0.557673454284668,5.653053283691406
1716758430405927700,11.045927734375,1.9444050788879395,0.1712760329246521,5.35935640335083
1716758430415927800,11.055927734375,1.8158330917358398,-0.1353667974472046,4.875790596008301
1716758430425927700,11.065927734375,1.813497543334961,-0.19300225377082825,4.636190414428711
1716758430435928300,11.07592822265625,1.9250621795654297,0.3411766588687897,4.2814788818359375
1716758430445928200,11.08592822265625,2.295858383178711,0.6872957944869995,3.7618613243103027
1716758430455928300,11.09592822265625,2.4749937057495117,1.1874747276306152,3.6745402812957764
1716758430465928200,11.10592822265625,2.5074567794799805,1.7474552392959595,3.498969554901123
1716758430475928300,11.11592822265625,2.366860866546631,2.192612886428833,3.0568885803222656
1716758430485927700,11.125927734375,1.9616804122924805,2.451305389404297,2.5519940853118896
1716758430495927800,11.135927734375,1.6818742752075195,2.6510772705078125,2.102177381515503
1716758430505927400,11.145927490234374,1.7738475799560547,2.5480926036834717,1.468294382095337
1716758430515927300,11.15592724609375,2.1370468139648438,2.263946771621704,1.4643017053604126
1716758430525927400,11.165927490234376,2.5896663665771484,1.9395982027053833,1.6804850101470947
1716758430535927300,11.17592724609375,2.9929795265197754,1.621493935585022,1.7423408031463623
1716758430545927400,11.185927490234375,2.8620309829711914,1.2428520917892456,1.8152375221252441
1716758430555927300,11.19592724609375,3.296219825744629,1.0141466856002808,2.324369430541992
1716758430565927000,11.205927001953125,3.8451333045959473,0.9830701351165771,2.4703240394592285
1716758430575927300,11.21592724609375,3.981841564178467,0.9196429252624512,2.0506362915039062
1716758430585927400,11.225927490234374,4.275522708892822,0.8222280740737915,1.718648910522461
1716758430595927300,11.23592724609375,4.536471366882324,0.5651257038116455,1.472297191619873
1716758430605927200,11.24592724609375,4.688486576080322,0.402506947517395,1.4774048328399658
1716758430615927300,11.25592724609375,4.631267070770264,0.7086006999015808,1.2337279319763184
1716758430625927000,11.265927001953125,4.607880115509033,1.2066650390625,1.1360180377960205
1716758430635926800,11.2759267578125,4.646549224853516,1.49459707736969,1.2175912857055664
1716758430645927000,11.285927001953125,4.6696014404296875,1.3610484600067139,1.25645112991333
1716758430655926800,11.2959267578125,4.465167045593262,0.7415469884872437,0.9343650341033936
1716758430665927000,11.305927001953124,4.360029220581055,0.2379520982503891,0.6857824325561523
1716758430675926800,11.3159267578125,4.3654961585998535,0.029829293489456177,0.41611766815185547
1716758430685927000,11.325927001953126,4.392013072967529,-0.013841032981872559,-0.4911208152770996
1716758430695926800,11.3359267578125,4.293370246887207,0.1059640645980835,-1.1272611618041992
1716758430705927000,11.345927001953125,4.157656669616699,0.27894604206085205,-1.1505646705627441
1716758430715926800,11.3559267578125,4.258124351501465,0.43304750323295593,-1.1639695167541504
1716758430725927000,11.365927001953125,4.023622989654541,0.21460875868797302,-1.6737914085388184
1716758430735926300,11.37592626953125,3.596749782562256,0.15956950187683105,-2.3399949073791504
1716758430745926400,11.385926513671874,2.7582931518554688,0.38637664914131165,-2.9989748001098633
1716758430755926300,11.39592626953125,2.206368923187256,0.7926004528999329,-3.3903589248657227
1716758430765926400,11.405926513671876,2.092316150665283,0.90006023645401,-3.7236571311950684
1716758430775926300,11.41592626953125,2.3015027046203613,0.868211567401886,-3.8019790649414062
1716758430785926400,11.425926513671875,2.3746895790100098,0.533371090888977,-3.6570611000061035
1716758430795926300,11.43592626953125,2.796720504760742,0.526362419128418,-3.461848735809326
1716758430805926400,11.445926513671875,3.1895523071289062,0.5801897048950195,-2.890749931335449
1716758430815926300,11.45592626953125,3.8806722164154053,0.06307482719421387,-2.4110755920410156
1716758430825927000,11.465927001953125,4.883145332336426,-0.10084044933319092,-1.8956193923950195
1716758430835926800,11.4759267578125,5.284467697143555,-0.6222361922264099,-2.727982521057129
1716758430845927000,11.485927001953126,5.157525062561035,-0.6878494024276733,-4.198400020599365
1716758430855926800,11.4959267578125,4.68951416015625,-0.7526779174804688,-5.009537696838379
1716758430865927000,11.505927001953125,4.531047821044922,-0.6997587084770203,-5.628719329833984
1716758430875926300,11.51592626953125,4.655925750732422,-0.5283096432685852,-5.9357194900512695
1716758430885926400,11.525926513671875,5.25802755355835,-0.25298023223876953,-5.738577842712402
1716758430895926300,11.53592626953125,5.114670276641846,-0.1864575743675232,-5.1684722900390625
1716758430905926400,11.545926513671875,5.216915607452393,-0.24550902843475342,-4.623308181762695
1716758430915926300,11.55592626953125,4.697757244110107,-1.076585292816162,-6.599692344665527
1716758430925926400,11.565926513671876,5.462969779968262,-0.6704834699630737,-6.273406982421875
1716758430935926800,11.5759267578125,5.12985897064209,-1.1451468467712402,-7.318296432495117
1716758430945927000,11.585927001953126,5.305010795593262,-1.412603497505188,-8.635127067565918
1716758430955926800,11.5959267578125,5.004123687744141,-1.6369775533676147,-9.588613510131836
1716758430965927000,11.605927001953125,4.961301326751709,-1.8410248756408691,-10.302407264709473
1716758430975926800,11.6159267578125,5.220992088317871,-1.9120222330093384,-10.709502220153809
1716758430985927000,11.625927001953125,5.549228191375732,-2.2975916862487793,-10.751319885253906
1716758430995926800,11.6359267578125,5.748486042022705,-2.494359254837036,-10.816718101501465
1716758431005927000,11.645927001953124,6.29635763168335,-2.3344597816467285,-11.47508430480957
1716758431015926800,11.6559267578125,6.857138156890869,-2.0713672637939453,-11.633875846862793
1716758431025927000,11.665927001953126,6.977170944213867,-1.8261315822601318,-11.6946382522583
1716758431035926800,11.6759267578125,7.0746564865112305,-1.6341612339019775,-11.847860336303711
1716758431045927000,11.685927001953125,7.171663284301758,-1.4139368534088135,-12.544764518737793
1716758431055926800,11.6959267578125,7.116799354553223,-1.3409626483917236,-13.455856323242188
1716758431065927000,11.705927001953125,6.650590419769287,-1.0946924686431885,-13.51523494720459
1716758431075926800,11.7159267578125,6.237705230712891,-0.9579408168792725,-12.924287796020508
1716758431085927000,11.725927001953124,5.810058116912842,-0.8832378387451172,-11.859189987182617
1716758431095926800,11.7359267578125,6.036320686340332,-0.8111132383346558,-11.184842109680176
1716758431105927000,11.745927001953126,6.53175163269043,-0.9666261672973633,-10.322566032409668
1716758431115926800,11.7559267578125,6.733602523803711,-1.0345690250396729,-9.39672565460205
1716758431125926400,11.765926513671875,6.845672607421875,-1.1740248203277588,-8.578316688537598
1716758431135926300,11.77592626953125,6.852394104003906,-1.288548469543457,-7.461347579956055
1716758431145926400,11.785926513671875,7.178711414337158,-1.2098122835159302,-6.5217132568359375
1716758431155926300,11.79592626953125,7.309299468994141,-0.8466216325759888,-5.713334083557129
1716758431165926400,11.805926513671874,7.272709846496582,-0.6552808284759521,-4.831574440002441
1716758431175926300,11.81592626953125,6.890901565551758,-0.6875371932983398,-3.6955928802490234
1716758431185927000,11.825927001953126,6.590106964111328,-0.500530481338501,-3.317835807800293
1716758431195926800,11.8359267578125,6.37451696395874,-0.4107935428619385,-2.32387638092041
1716758431205927000,11.845927001953125,7.4576334953308105,0.6408255696296692,-1.5255680084228516
1716758431215926800,11.8559267578125,7.126513481140137,1.206253170967102,-1.8075551986694336
1716758431225927200,11.86592724609375,6.103249549865723,1.1535359621047974,-2.4188241958618164
1716758431235926800,11.8759267578125,5.373265266418457,1.4753413200378418,-2.062901496887207
1716758431245927000,11.885927001953124,4.796082019805908,1.163602352142334,-1.5708742141723633
1716758431255926800,11.8959267578125,4.112310409545898,0.642001748085022,-1.9124259948730469
1716758431265927000,11.905927001953126,3.519688129425049,0.13508671522140503,-1.4630699157714844
1716758431275926800,11.9159267578125,3.196937084197998,0.3642823398113251,-0.997528076171875
1716758431285927000,11.925927001953125,2.710344076156616,0.9209235906600952,-0.5497102737426758
1716758431295926800,11.9359267578125,2.272956609725952,1.117711067199707,0.6284055709838867
1716758431305927000,11.945927001953125,2.3259434700012207,1.1799460649490356,2.4972729682922363
1716758431315926800,11.9559267578125,2.256051778793335,0.7975291013717651,3.810075283050537
1716758431325927200,11.96592724609375,2.1756601333618164,0.39528024196624756,4.924440383911133
1716758431335927800,11.975927734375,2.371026039123535,0.3170461654663086,5.59999942779541
1716758431345927700,11.985927734375,2.6168465614318848,0.39709585905075073,5.938774108886719
1716758431355927800,11.995927734375,2.6444242000579834,0.4731905460357666,6.284950256347656
1716758431365927700,12.005927734375,2.4128522872924805,0.6204404234886169,6.988832950592041
1716758431375927800,12.015927734375,1.962010383605957,0.605661153793335,6.694302082061768
1716758431385927700,12.025927734375,1.634040355682373,0.3228932023048401,5.6540141105651855
1716758431395927800,12.035927734375,1.43853759765625,0.5546687245368958,4.146873474121094
1716758431405928200,12.04592822265625,1.459406852722168,0.6314005851745605,3.291363477706909
1716758431415928000,12.055927978515625,1.4946632385253906,0.7098190188407898,3.4883618354797363
1716758431425928200,12.06592822265625,1.813737392425537,0.8154168725013733,4.185318946838379
1716758431435928300,12.07592822265625,2.016541004180908,1.044020414352417,4.407247543334961
1716758431445928200,12.08592822265625,2.1547422409057617,1.165880799293518,4.1689653396606445
1716758431455928300,12.09592822265625,2.3551387786865234,1.345203161239624,3.9084787368774414
1716758431465928200,12.10592822265625,2.2691450119018555,1.3121556043624878,3.5271365642547607
1716758431475928300,12.11592822265625,1.8244657516479492,1.3582087755203247,2.959340810775757
1716758431485927700,12.125927734375,1.5595579147338867,1.3684935569763184,2.1125388145446777
1716758431495927800,12.135927734375,1.5313053131103516,1.2867763042449951,1.354480266571045
1716758431505927700,12.145927734375,1.602297306060791,1.1753000020980835,0.7505316734313965
1716758431515927800,12.155927734375,1.5324292182922363,1.0408838987350464,0.5146722793579102
1716758431525927400,12.165927490234376,1.458545207977295,0.9006286263465881,0.5005812644958496
1716758431535927300,12.17592724609375,1.3713364601135254,0.7999930381774902,0.8868627548217773
1716758431545927400,12.185927490234375,1.247642993927002,0.809700608253479,1.398911714553833
1716758431555927300,12.19592724609375,1.2914791107177734,0.7115164995193481,1.8726398944854736
1716758431565927400,12.205927490234375,1.5065412521362305,0.7222394943237305,2.228442907333374
1716758431575927800,12.215927734375,1.5299696922302246,0.8538326025009155,2.50541615486145
1716758431585927700,12.225927734375,1.3597631454467773,0.9935022592544556,2.9251720905303955
1716758431595927800,12.235927734375,1.2071642875671387,1.0666617155075073,3.3115241527557373
1716758431605927700,12.245927734375,0.9989676475524902,1.0004847049713135,3.849485397338867
1716758431615927800,12.255927734375,0.7111272811889648,0.9279042482376099,4.450511932373047
1716758431625927400,12.265927490234375,0.4951515197753906,0.9198136329650879,4.772972106933594
1716758431635926800,12.2759267578125,0.42291831970214844,0.9548921585083008,4.877222061157227
1716758431645927000,12.285927001953125,0.12494277954101562,1.0188281536102295,5.268406867980957
1716758431655926800,12.2959267578125,-0.2986621856689453,0.9301044940948486,5.5820488929748535
1716758431665927000,12.305927001953124,-0.4546995162963867,0.7815306782722473,5.4416279792785645
1716758431675926800,12.3159267578125,-0.6677770614624023,0.3771896958351135,4.998872756958008
1716758431685927400,12.325927490234376,-0.6337337493896484,0.4314015507698059,4.901341915130615
1716758431695927300,12.33592724609375,-1.358342170715332,-0.4912213087081909,4.195083141326904
1716758431705927000,12.345927001953125,-1.892836570739746,-0.600095272064209,4.209278583526611
1716758431715926800,12.3559267578125,-2.444413185119629,-0.6243343949317932,4.2679667472839355
1716758431725927000,12.365927001953125,-2.9415969848632812,-0.518068253993988,4.308421611785889
1716758431735926800,12.3759267578125,-2.7363481521606445,-0.42731356620788574,4.499567985534668
1716758431745927000,12.385927001953124,-2.302840232849121,-0.3703596591949463,4.630220413208008
1716758431755926800,12.3959267578125,-2.0647926330566406,-0.2891365885734558,4.757277488708496
1716758431765927000,12.405927001953126,-2.149038314819336,-0.1699007749557495,5.119651794433594
1716758431775926800,12.4159267578125,-2.251768112182617,-0.05097764730453491,5.325478553771973
1716758431785927000,12.425927001953125,-2.3042373657226562,-0.05231201648712158,5.44401216506958
1716758431795926800,12.4359267578125,-2.2063255310058594,-0.09199059009552002,5.498232841491699
1716758431805927000,12.445927001953125,-2.2328805923461914,-0.06477314233779907,5.7129926681518555
1716758431815926800,12.4559267578125,-1.9696979522705078,0.05154186487197876,6.126184463500977
1716758431825927000,12.465927001953125,-1.7882699966430664,0.2513003945350647,6.584140777587891
1716758431835926800,12.4759267578125,-1.7335567474365234,0.45267200469970703,6.799861907958984
1716758431845927000,12.485927001953126,-1.7509536743164062,0.5317052602767944,7.0390520095825195
1716758431855926800,12.4959267578125,-1.781571388244629,0.5753542184829712,7.222929954528809
1716758431865927000,12.505927001953125,-1.8897819519042969,0.65065598487854,7.196577072143555
1716758431875926300,12.51592626953125,-1.902627944946289,0.727816104888916,7.092257499694824
1716758431885926400,12.525926513671875,-1.79644775390625,0.6603747010231018,6.975305557250977
1716758431895926300,12.53592626953125,-1.7356834411621094,0.5754197239875793,6.740268230438232
1716758431905926400,12.545926513671875,-1.8726739883422852,0.466392457485199,6.447648048400879
1716758431915926300,12.55592626953125,-2.2208242416381836,0.3573305904865265,6.319089412689209
1716758431925926400,12.565926513671876,-2.363475799560547,0.2992415130138397,6.3761138916015625
1716758431935926800,12.5759267578125,-2.141815185546875,0.3764825165271759,6.459726810455322
1716758431945927000,12.585927001953126,-1.805948257446289,0.501089870929718,6.247805595397949
1716758431955926800,12.5959267578125,-1.6329736709594727,0.6629301309585571,5.998416900634766
1716758431965927000,12.605927001953125,-1.6678485870361328,0.7668038606643677,5.744847297668457
1716758431975926800,12.6159267578125,-1.7796249389648438,0.7774452567100525,5.491359233856201
1716758431985926400,12.625926513671875,-1.8004350662231445,0.7554513812065125,5.347711563110352
1716758431995926300,12.63592626953125,-1.8118648529052734,0.7188125252723694,5.269659519195557
