time,seconds_elapsed,z,y,x
1716758419470882800,0.1108828125,-0.023136520758271217,-0.09437867999076843,0.033826664090156555
1716758419480855800,0.120855712890625,-0.023136520758271217,-0.09437867999076843,0.033826664090156555
1716758419490868700,0.13086865234375,-0.023136520758271217,-0.09437867999076843,0.033826664090156555
1716758419500875300,0.140875244140625,-0.032299499958753586,0.011301007121801376,0.09552405029535294
1716758419510879500,0.15087939453125,-0.03107776865363121,-0.052228979766368866,0.09124799817800522
1716758419520883000,0.160883056640625,-0.018249599263072014,-0.09010262042284012,0.07597636431455612
1716758419530885400,0.170885498046875,0.002519819187000394,-0.09560041129589081,0.05337435007095337
1716758419540889900,0.180889892578125,0.023900102823972702,-0.06383541971445084,0.03321579843759537
1716758419550891800,0.190891845703125,0.03611740842461586,-0.005192354787141085,0.021609358489513397
1716758419560893400,0.2008935546875,0.0391717329621315,0.0705549344420433,0.02344195358455181
1716758419570894800,0.210894775390625,0.04283692687749863,0.12736541032791138,0.03443752974271774
1716758419580896300,0.220896240234375,0.041004329919815063,0.1316414624452591,0.052152618765830994
1716758419590897700,0.230897705078125,0.037339139729738235,0.09010262042284012,0.07292203605175018
1716758419600898600,0.240898681640625,0.0190131813287735,-0.001527163083665073,0.08391761034727097
1716758419610899700,0.250899658203125,0.008017606101930141,-0.06811147183179855,0.07536549866199493
1716758419620900600,0.260900634765625,0.0019089538836851716,-0.11881329119205475,0.060704734176397324
1716758419630901500,0.270901611328125,0.0012980886967852712,-0.1267545372247696,0.0417679101228714
1716758419640902100,0.280902099609375,0.0037415495608001947,-0.10415252298116684,0.016111571341753006
1716758419650903300,0.2909033203125,0.0012980886967852712,-0.06627888232469559,-0.014431691728532314
1716758419660904200,0.300904296875,-0.0035888333804905415,-0.01863138936460018,-0.04069889709353447
1716758419670904800,0.31090478515625,-0.0011453722836449742,0.03695734590291977,-0.04864014685153961
1716758419680905500,0.320905517578125,0.00618501054123044,0.08460483700037003,-0.038866300135850906
1716758419690906000,0.330906005859375,0.011682798154652119,0.09926560521125793,-0.016264287754893303
1716758419700906800,0.34090673828125,0.013515393249690533,0.07666359096765518,0.011835514567792416
1716758419710907100,0.3509072265625,0.009239336475729942,0.04489859566092491,0.04054617881774902
1716758419720907800,0.36090771484375,0.006795875728130341,0.013744467869400978,0.06803511828184128
1716758419730908400,0.370908447265625,0.006795875728130341,-0.02474004216492176,0.09369145333766937
1716758419740908800,0.38090869140625,0.006795875728130341,-0.04917465150356293,0.10896308720111847
1716758419750909200,0.3909091796875,0.015347989276051521,-0.049785517156124115,0.11690433323383331
1716758419760909800,0.400909912109375,0.02695442922413349,-0.02229658141732216,0.11812606453895569
1716758419770910200,0.41091015625,0.0342848114669323,0.027183502912521362,0.11873693019151688
1716758419780910600,0.42091064453125,0.04161519557237625,0.06933320313692093,0.12179125845432281
1716758419790911000,0.430910888671875,0.04466952010989189,0.09743300825357437,0.12606731057167053
1716758419800911000,0.4409111328125,0.04161519557237625,0.10842858254909515,0.13584116101264954
1716758419810911000,0.450910888671875,0.025732697919011116,0.06811147183179855,0.13400855660438538
1716758419820911000,0.4609111328125,0.01290452852845192,0.03084869496524334,0.12118039280176163
1716758419830911000,0.470910888671875,0.007406740915030241,0.014355333521962166,0.10285443812608719
1716758419840910600,0.48091064453125,0.00862847175449133,0.0039706239476799965,0.0771980956196785
1716758419850910700,0.49091064453125,0.01412625890225172,-0.010690141469240189,0.04909829422831535
1716758419860910600,0.50091064453125,0.022678371518850327,-0.012522737495601177,0.021609358489513397
1716758419870910700,0.51091064453125,0.020845776423811913,0.007635815534740686,0.006337726954370737
1716758419880910600,0.52091064453125,0.01840231567621231,0.04734205827116966,0.017333300784230232
1716758419890910500,0.530910400390625,0.016569720581173897,0.07422012835741043,0.04909829422831535
1716758419900910800,0.540910888671875,0.016569720581173897,0.07910704612731934,0.09308059513568878
1716758419910910700,0.55091064453125,0.023289237171411514,0.08765916526317596,0.1431715488433838
1716758419920910300,0.560910400390625,0.032452214509248734,0.08888089656829834,0.19020816683769226
1716758419930910500,0.570910400390625,0.0342848114669323,0.058948494493961334,0.23174700140953064
1716758419940910300,0.580910400390625,0.023289237171411514,0.008246680721640587,0.2598468065261841
1716758419950910200,0.59091015625,0.017180584371089935,-0.021074850112199783,0.2690097689628601
1716758419960910000,0.60091015625,0.0190131813287735,-0.023518312722444534,0.25679248571395874
1716758419970910200,0.61091015625,0.02451096847653389,-0.027183502912521362,0.22624921798706055
1716758419980910000,0.62091015625,0.03367394581437111,-0.03145955875515938,0.192651629447937
1716758419990910200,0.63091015625,0.03856086730957031,-0.01924225501716137,0.1682170182466507
1716758420000910600,0.64091064453125,0.03856086730957031,-0.007024950347840786,0.13950635492801666
1716758420010910700,0.65091064453125,0.0391717329621315,-0.024129176512360573,0.10835222154855728
1716758420020910600,0.66091064453125,0.044058654457330704,-0.044287730008363724,0.082085020840168
1716758420030911200,0.6709111328125,0.044058654457330704,-0.05345070734620094,0.0668133869767189
1716758420040911600,0.68091162109375,0.03611740842461586,-0.03940080851316452,0.072311170399189
1716758420050911500,0.690911376953125,0.032452214509248734,-0.02229658141732216,0.07658722996711731
1716758420060911600,0.70091162109375,0.025121834129095078,-0.02168571576476097,0.08025242388248444
1716758420070911500,0.710911376953125,0.01840231567621231,-0.027183502912521362,0.08819366991519928
1716758420080911600,0.72091162109375,0.0037415495608001947,-0.03145955875515938,0.09980010986328125
1716758420090911000,0.730910888671875,-0.010919216088950634,-0.03329215571284294,0.11140654981136322
1716758420100911000,0.7409111328125,-0.017638733610510826,-0.022907447069883347,0.1272890418767929
1716758420110911000,0.750910888671875,-0.013973542489111423,-0.011301007121801376,0.14683672785758972
1716758420120911600,0.76091162109375,0.00557414535433054,0.007024950347840786,0.15722143650054932
1716758420130911500,0.770911376953125,0.04161519557237625,0.013133603148162365,0.1578323096036911
1716758420140911000,0.7809111328125,0.08071056753396988,0.02229658141732216,0.1529453843832016
1716758420150911000,0.790910888671875,0.10392344743013382,0.01924225501716137,0.1480584591627121
1716758420160911000,0.8009111328125,0.10819950699806213,0.024129176512360573,0.14500413835048676
1716758420170911000,0.810910888671875,0.10209085047245026,0.03695734590291977,0.14561499655246735
1716758420180911000,0.8209111328125,0.08559749275445938,0.0503963828086853,0.1480584591627121
1716758420190911000,0.830910888671875,0.06788240373134613,0.05711590126156807,0.15050192177295685
1716758420200910800,0.840910888671875,0.05749769136309624,0.06811147183179855,0.15477798879146576
1716758420210911000,0.850910888671875,0.05016730725765228,0.08827003091573715,0.1578323096036911
1716758420220911000,0.8609111328125,0.05016730725765228,0.11698069423437119,0.16149750351905823
1716758420230911200,0.8709111328125,0.05688682571053505,0.15790866315364838,0.1584431678056717
1716758420240911000,0.8809111328125,0.06360634416341782,0.18967366218566895,0.14866933226585388
1716758420250911200,0.8909111328125,0.06360634416341782,0.2018909603357315,0.14011721312999725
1716758420260911000,0.9009111328125,0.061162881553173065,0.18906278908252716,0.14011721312999725
1716758420270911200,0.9109111328125,0.04772384837269783,0.14446963369846344,0.13645201921463013
1716758420280911000,0.9209111328125,0.029397889971733093,0.0913243517279625,0.12179125845432281
1716758420290911700,0.930911865234375,0.00985020212829113,0.02474004216492176,0.09796751290559769
1716758420300911000,0.9409111328125,-0.0164170041680336,-0.02168571576476097,0.082085020840168
1716758420310911200,0.9509111328125,-0.04329507425427437,-0.038179077208042145,0.07414376735687256
1716758420320911000,0.9609111328125,-0.06956227868795395,-0.044287730008363724,0.07170030474662781
1716758420330910700,0.97091064453125,-0.08910996466875076,-0.044287730008363724,0.07047858089208603
1716758420340910300,0.980910400390625,-0.08849909901618958,-0.03329215571284294,0.06620252132415771
1716758420350910200,0.99091015625,-0.07444920390844345,-0.003359758760780096,0.052152618765830994
1716758420360909800,1.000909912109375,-0.04940372705459595,0.022907447069883347,0.025274548679590225
1716758420370910000,1.010909912109375,-0.02557998150587082,0.035124752670526505,-0.0071013085544109344
1716758420380909800,1.020909912109375,-0.009086620062589645,0.035124752670526505,-0.039477165788412094
1716758420390910000,1.030909912109375,-0.0035888333804905415,0.016798794269561768,-0.06391177326440811
1716758420400910000,1.04091015625,-0.004810563754290342,-0.014966198243200779,-0.06574437022209167
1716758420410910200,1.05091015625,-0.009086620062589645,-0.040622539818286896,-0.04314235970377922
1716758420420909800,1.060909912109375,-0.013362676836550236,-0.043676864355802536,0.005115996580570936
1716758420430909700,1.07090966796875,-0.013362676836550236,-0.015577063895761967,0.06864598393440247
1716758420440910000,1.08091015625,-0.012140946462750435,0.016798794269561768,0.12851077318191528
1716758420450910200,1.09091015625,-0.009086620062589645,0.03878994286060333,0.1676061451435089
1716758420460910000,1.10091015625,0.0006872233934700489,0.05711590126156807,0.18226692080497742
1716758420470910200,1.11091015625,0.017791450023651123,0.08827003091573715,0.17982345819473267
1716758420480910000,1.12091015625,0.040393464267253876,0.13041973114013672,0.1724930703639984
1716758420490910200,1.13091015625,0.05627596005797386,0.14508049190044403,0.16638441383838654
1716758420500910000,1.14091015625,0.0593302883207798,0.11148291081190109,0.17004960775375366
1716758420510910200,1.15091015625,0.055665094405412674,0.07971791177988052,0.17432567477226257
1716758420520910000,1.16091015625,0.052610769867897034,0.06383541971445084,0.1786017268896103
1716758420530910200,1.17091015625,0.04711298272013664,0.05100724846124649,0.17676913738250732
1716758420540910600,1.18091064453125,0.04222606122493744,0.040622539818286896,0.17432567477226257
1716758420550910700,1.19091064453125,0.043447788804769516,0.03940080851316452,0.1688278764486313
1716758420560910600,1.20091064453125,0.04222606122493744,0.032681290060281754,0.15416711568832397
1716758420570910700,1.21091064453125,0.032452214509248734,0.013133603148162365,0.13950635492801666
1716758420580910600,1.22091064453125,0.025732697919011116,0.0003054326225537807,0.12851077318191528
1716758420590910200,1.23091015625,0.02451096847653389,-0.003359758760780096,0.11446087807416916
1716758420600910000,1.24091015625,0.025121834129095078,0.007635815534740686,0.09369145333766937
1716758420610910200,1.25091015625,0.026343563571572304,0.01924225501716137,0.07108944654464722
1716758420620910000,1.26091015625,0.029397889971733093,0.028405234217643738,0.05520694702863693
1716758420630910200,1.27091015625,0.028176158666610718,0.04184427112340927,0.04970915988087654
1716758420640910000,1.28091015625,0.02451096847653389,0.05467243865132332,0.052152618765830994
1716758420650910200,1.29091015625,0.015347989276051521,0.05772676691412926,0.06742425262928009
1716758420660910600,1.30091064453125,0.00862847175449133,0.043676864355802536,0.08391761034727097
1716758420670910500,1.310910400390625,0.00007635815563844517,0.01924225501716137,0.09796751290559769
1716758420680910600,1.32091064453125,0.0006872233934700489,-0.002138028386980295,0.10102184116840363
1716758420690910500,1.330910400390625,0.007406740915030241,-0.009468411095440388,0.0918588638305664
1716758420700910300,1.340910400390625,0.011682798154652119,-0.021074850112199783,0.06436992436647415
1716758420710910200,1.35091015625,0.011682798154652119,-0.049785517156124115,0.03321579843759537
1716758420720910300,1.360910400390625,0.010461067780852318,-0.06322455406188965,0.0020616701804101467
1716758420730910200,1.37091015625,0.0006872233934700489,-0.0503963828086853,-0.030925052240490913
1716758420740910300,1.380910400390625,-0.009086620062589645,-0.035124752670526505,-0.03214678168296814
1716758420750910200,1.39091015625,-0.020693060010671616,-0.0027488935738801956,-0.021151209250092506
1716758420760910300,1.400910400390625,-0.023136520758271217,0.04795292019844055,0.0020616701804101467
1716758420770910200,1.41091015625,-0.017638733610510826,0.09010262042284012,0.02710714563727379
1716758420780910300,1.420910400390625,-0.0035888333804905415,0.10659598559141159,0.04726569727063179
1716758420790910700,1.43091064453125,0.01595885492861271,0.1010981947183609,0.05948300287127495
1716758420800911000,1.4409111328125,0.04528038576245308,0.08888089656829834,0.06742425262928009
1716758420810911000,1.450910888671875,0.07643451541662216,0.07849618047475815,0.06925684958696365
1716758420820911000,1.4609111328125,0.09659306704998016,0.06872233748435974,0.06620252132415771
1716758420830911000,1.470910888671875,0.10270171612501144,0.03940080851316452,0.06253732740879059
1716758420840910600,1.48091064453125,0.09353873878717422,-0.003359758760780096,0.06253732740879059
1716758420850910500,1.490910400390625,0.07399105280637741,-0.03634648025035858,0.060704734176397324
1716758420860910600,1.50091064453125,0.04772384837269783,-0.05161811411380768,0.057039543986320496
1716758420870910500,1.510910400390625,0.017791450023651123,-0.04734205827116966,0.04970915988087654
1716758420880910600,1.52091064453125,-0.004810563754290342,-0.01618792861700058,0.0417679101228714
1716758420890910500,1.530910400390625,-0.024358252063393593,0.032681290060281754,0.03260493278503418
1716758420900910800,1.540910888671875,-0.0365755558013916,0.07849618047475815,0.031383201479911804
1716758420910910700,1.55091064453125,-0.04268420860171318,0.09376781433820724,0.024663684889674187
1716758420920910800,1.560910888671875,-0.041462477296590805,0.076052725315094,0.01366810966283083
1716758420930910700,1.57091064453125,-0.02802344225347042,0.055283304303884506,0.01061378326267004
1716758420940910800,1.580910888671875,-0.007254024967551231,0.0503963828086853,0.01366810966283083
1716758420950910700,1.59091064453125,0.01290452852845192,0.05100724846124649,0.014278975315392017
1716758420960910800,1.600910888671875,0.0342848114669323,0.02779436856508255,0.00939205288887024
1716758420970910700,1.61091064453125,0.04833471402525902,0.013133603148162365,0.00939205288887024
1716758420980910800,1.620910888671875,0.05749769136309624,0.005803219974040985,0.01488984003663063
1716758420990910700,1.63091064453125,0.05871942266821861,-0.0003054326225537807,0.021609358489513397
1716758421000910800,1.640910888671875,0.052610769867897034,-0.004581489134579897,0.02710714563727379
1716758421010910700,1.65091064453125,0.03856086730957031,0.011301007121801376,0.030161472037434578
1716758421020910800,1.660910888671875,0.022678371518850327,0.04306599870324135,0.028939740732312202
1716758421030910700,1.67091064453125,0.0012980886967852712,0.06933320313692093,0.015500705689191818
1716758421040911000,1.6809111328125,-0.0164170041680336,0.07177666574716568,0.005726861767470837
1716758421050911200,1.6909111328125,-0.029245173558592796,0.055283304303884506,0.0020616701804101467
1716758421060911000,1.7009111328125,-0.0316886343061924,0.03695734590291977,0.0038942659739404917
1716758421070911200,1.7109111328125,-0.023747386410832405,0.02474004216492176,0.011224648915231228
1716758421080911000,1.7209111328125,-0.011530081741511822,0.018020525574684143,0.022220224142074585
1716758421090910700,1.73091064453125,0.0037415495608001947,0.022907447069883347,0.03199406713247299
1716758421100910600,1.74091064453125,0.01840231567621231,0.023518312722444534,0.04360050708055496
1716758421110910500,1.750910400390625,0.025732697919011116,0.007024950347840786,0.04604396969079971
1716758421120910600,1.76091064453125,0.025732697919011116,-0.017409659922122955,0.033826664090156555
1716758421130910500,1.770910400390625,0.022067507728934288,-0.029016099870204926,0.017333300784230232
1716758421140910600,1.78091064453125,0.008017606101930141,-0.018020525574684143,0.008781188167631626
1716758421150910700,1.79091064453125,-0.010919216088950634,0.0064140851609408855,0.00939205288887024
1716758421160910800,1.800910888671875,-0.02496911771595478,0.04306599870324135,0.01061378326267004
1716758421170910700,1.81091064453125,-0.027412578463554382,0.07849618047475815,0.018555032089352608
1716758421180910800,1.820910888671875,-0.023747386410832405,0.09560041129589081,0.030772335827350616
1716758421190910700,1.83091064453125,-0.006032294128090143,0.08399397134780884,0.051541756838560104
1716758421200910600,1.84091064453125,0.009239336475729942,0.06444628536701202,0.06131559982895851
1716758421210910500,1.850910400390625,0.0214566420763731,0.03390302136540413,0.060704734176397324
1716758421220910600,1.86091064453125,0.0214566420763731,0.0027488935738801956,0.04421137273311615
1716758421230910500,1.870910400390625,0.011682798154652119,-0.018020525574684143,0.01794416643679142
1716758421240910000,1.88091015625,-0.0017562375869601965,-0.020463986322283745,-0.011377365328371525
1716758421250910200,1.89091015625,-0.012751812115311623,-0.009468411095440388,-0.03703370690345764
1716758421260910000,1.90091015625,-0.020082194358110428,0.009468411095440388,-0.0492510087788105
1716758421270910200,1.91091015625,-0.02863430790603161,0.03940080851316452,-0.04558581858873367
1716758421280910000,1.92091015625,-0.032299499958753586,0.06811147183179855,-0.03153591975569725
1716758421290910500,1.930910400390625,-0.03352123126387596,0.07849618047475815,-0.010766499675810337
1716758421300910600,1.94091064453125,-0.02496911771595478,0.06933320313692093,0.011835514567792416
1716758421310910500,1.950910400390625,-0.015806138515472412,0.05100724846124649,0.02710714563727379
1716758421320910600,1.96091064453125,-0.007864889688789845,0.025961773470044136,0.030772335827350616
1716758421330910500,1.970910400390625,-0.005421428941190243,-0.003359758760780096,0.0264962799847126
1716758421340910000,1.98091015625,-0.009086620062589645,-0.02535090781748295,0.01488984003663063
1716758421350909700,1.99090966796875,-0.01947133056819439,-0.04184427112340927,-0.0009926559869199991
1716758421360909800,2.000909912109375,-0.02557998150587082,-0.044287730008363724,-0.014431691728532314
1716758421370909700,2.01090966796875,-0.026190847158432007,-0.025961773470044136,-0.018096882849931717
1716758421380909800,2.020909912109375,-0.023136520758271217,0.01618792861700058,-0.007712173741310835
1716758421390909700,2.03090966796875,-0.01947133056819439,0.0705549344420433,0.010002918541431427
1716758421400910000,2.04091015625,-0.0164170041680336,0.10537425428628922,0.031383201479911804
1716758421410910000,2.050909912109375,-0.011530081741511822,0.10965031385421753,0.04726569727063179
1716758421420910000,2.06091015625,0.004352414980530739,0.03878994286060333,0.04726569727063179
1716758421430910000,2.070909912109375,0.015347989276051521,-0.030237829312682152,0.03565925732254982
1716758421440910000,2.08091015625,0.014737123623490334,-0.07849618047475815,0.015500705689191818
1716758421450909700,2.09090966796875,0.010461067780852318,-0.096211276948452,-0.0016035212902352214
1716758421460909800,2.100909912109375,0.004352414980530739,-0.08888089656829834,-0.009544769302010536
1716758421470909700,2.11090966796875,-0.005421428941190243,-0.04245513305068016,-0.008323038928210735
1716758421480909800,2.120909912109375,-0.013362676836550236,0.020463986322283745,-0.0009926559869199991
1716758421490909700,2.13090966796875,-0.013973542489111423,0.07299839705228806,0.015500705689191818
1716758421500909800,2.140909912109375,-0.009086620062589645,0.10476338863372803,0.04237877577543259
1716758421510909700,2.15090966796875,-0.0005345070967450738,0.10781771689653397,0.07170030474662781
1716758421520909800,2.160909912109375,0.0037415495608001947,0.08521570265293121,0.09308059513568878
1716758421530909700,2.17090966796875,0.007406740915030241,0.04734205827116966,0.09857837855815887
1716758421540910600,2.18091064453125,0.00985020212829113,0.013133603148162365,0.09002626687288284
1716758421550910700,2.19091064453125,0.011071932502090931,-0.002138028386980295,0.06864598393440247
1716758421560910600,2.20091064453125,0.00007635815563844517,-0.0039706239476799965,0.04237877577543259
1716758421570910700,2.21091064453125,-0.01702786795794964,0.0064140851609408855,0.00939205288887024
1716758421580910600,2.22091064453125,-0.026801712810993195,0.03084869496524334,-0.018707748502492905
1716758421590910200,2.23091015625,-0.032910365611314774,0.06444628536701202,-0.0339793786406517
1716758421600910000,2.24091015625,-0.03413209691643715,0.0907134860754013,-0.03520110994577408
1716758421610910700,2.25091064453125,-0.02557998150587082,0.10048733651638031,-0.02603813074529171
1716758421620910600,2.26091064453125,-0.013362676836550236,0.08399397134780884,-0.010766499675810337
1716758421630910700,2.27091064453125,0.00007635815563844517,0.04734205827116966,0.007559457328170538
1716758421640910600,2.28091064453125,0.011682798154652119,0.013133603148162365,0.022220224142074585
1716758421650911200,2.2909111328125,0.01840231567621231,-0.020463986322283745,0.02710714563727379
1716758421660911000,2.3009111328125,0.011682798154652119,-0.030237829312682152,0.02099849283695221
1716758421670911200,2.3109111328125,0.0006872233934700489,-0.027183502912521362,0.008781188167631626
1716758421680911000,2.3209111328125,-0.009697485715150833,-0.007635815534740686,0.000839939690195024
1716758421690911200,2.3309111328125,-0.0188604649156332,0.024129176512360573,-0.006490443367511034
1716758421700910800,2.340910888671875,-0.024358252063393593,0.05161811411380768,-0.011988230049610138
1716758421710911000,2.350910888671875,-0.023136520758271217,0.06994406878948212,-0.013820826075971127
1716758421720910800,2.360910888671875,-0.015806138515472412,0.0809396430850029,-0.005268712528049946
1716758421730911000,2.370910888671875,-0.014584408141672611,0.07971791177988052,0.00939205288887024
1716758421740910800,2.380910888671875,-0.0164170041680336,0.05955936014652252,0.025274548679590225
1716758421750911000,2.390910888671875,-0.01947133056819439,0.02229658141732216,0.03871358558535576
1716758421760910800,2.400910888671875,-0.01702786795794964,-0.004581489134579897,0.05032002553343773
1716758421770911000,2.410910888671875,-0.008475755341351032,-0.013744467869400978,0.05337435007095337
1716758421780910800,2.420910888671875,0.0019089538836851716,-0.003359758760780096,0.04787656292319298
1716758421790911500,2.430911376953125,0.004963280167430639,0.017409659922122955,0.033826664090156555
1716758421800911400,2.440911376953125,0.0019089538836851716,0.046731192618608475,0.025274548679590225
1716758421810911500,2.450911376953125,-0.0017562375869601965,0.09804387390613556,0.02955060638487339
1716758421820911400,2.460911376953125,-0.002367102773860097,0.1609629988670349,0.04909829422831535
1716758421830911500,2.470911376953125,-0.008475755341351032,0.19394971430301666,0.09002626687288284
1716758421840910800,2.480910888671875,-0.012140946462750435,0.21288654208183289,0.1474476009607315
1716758421850911000,2.490910888671875,-0.0164170041680336,0.22327125072479248,0.20670153200626373
1716758421860910800,2.500910888671875,-0.012751812115311623,0.2269364446401596,0.25068381428718567
1716758421870911000,2.510910888671875,-0.005421428941190243,0.18906278908252716,0.2726749777793884
1716758421880910800,2.520910888671875,0.0019089538836851716,0.12370020896196365,0.24762949347496033
1716758421890911000,2.530910888671875,-0.002367102773860097,-0.049785517156124115,0.1431715488433838
1716758421900910800,2.540910888671875,-0.0035888333804905415,-0.1774563491344452,-0.010155634954571724
1716758421910910500,2.550910400390625,-0.012140946462750435,-0.23182335495948792,-0.14760030806064606
1716758421920910300,2.560910400390625,-0.04085161164402962,-0.1866193264722824,-0.22701279819011688
1716758421930910500,2.570910400390625,-0.06772968173027039,-0.035124752670526505,-0.2508365511894226
1716758421940910800,2.580910888671875,-0.08849909901618958,0.126143679022789,-0.23739750683307648
1716758421950910700,2.59091064453125,-0.07872525602579117,0.12736541032791138,-0.20868684351444244
1716758421960910600,2.60091064453125,-0.038408152759075165,-0.0009162978967651725,-0.20318904519081116
1716758421970910700,2.61091064453125,0.015347989276051521,-0.1518000066280365,-0.21296289563179016
1716758421980910600,2.62091064453125,0.06666067242622375,-0.2483167201280594,-0.21479548513889313
1716758421990910700,2.63091064453125,0.09903652966022491,-0.2886338233947754,-0.20746511220932007
1716758422000910600,2.64091064453125,0.11675161868333817,-0.30085113644599915,-0.19402606785297394
1716758422010911200,2.6509111328125,0.12163854390382767,-0.2837468981742859,-0.17264579236507416
1716758422020911000,2.6609111328125,0.10819950699806213,-0.22021691501140594,-0.14149166643619537
1716758422030911200,2.6709111328125,0.07154759019613266,-0.1316414624452591,-0.0999528244137764
1716758422040911600,2.68091162109375,0.022067507728934288,-0.046731192618608475,-0.05047274008393288
1716758422050911500,2.690911376953125,-0.020693060010671616,0.019853120669722557,0.00022907447419129312
1716758422060911600,2.70091162109375,-0.05123632401227951,0.05650503560900688,0.04054617881774902
1716758422070911500,2.710911376953125,-0.07322747260332108,0.061391957104206085,0.06620252132415771
1716758422080911600,2.72091162109375,-0.07872525602579117,0.030237829312682152,0.07597636431455612
1716758422090911200,2.7309111328125,-0.06834054738283157,-0.028405234217643738,0.0668133869767189
1716758422100911000,2.7409111328125,-0.043905939906835556,-0.0809396430850029,0.04360050708055496
1716758422110911200,2.7509111328125,-0.004199698567390442,-0.10903944820165634,-0.004046982154250145
1716758422120910800,2.760910888671875,0.01412625890225172,-0.09254608303308487,-0.03153591975569725
1716758422131916000,2.771916015625,0.01595885492861271,-0.04917465150356293,-0.051083605736494064
1716758422141916000,2.781916015625,0.012293662875890732,-0.004581489134579897,-0.05780312418937683
1716758422151916000,2.791916015625,0.006795875728130341,0.038179077208042145,-0.044974952936172485
1716758422161916000,2.801916015625,-0.008475755341351032,0.07177666574716568,-0.015653422102332115
1716758422171916000,2.811916015625,-0.03107776865363121,0.08338310569524765,0.02099849283695221
1716758422181918700,2.821918701171875,-0.059177570044994354,0.06505715101957321,0.05826127156615257
1716758422191918800,2.8319189453125,-0.0768926590681076,0.018020525574684143,0.08575020730495453
1716758422201918700,2.841918701171875,-0.07933612167835236,-0.038179077208042145,0.10285443812608719
1716758422211918800,2.8519189453125,-0.07444920390844345,-0.08888089656829834,0.1126282811164856
1716758422221918700,2.861918701171875,-0.06650795042514801,-0.12308934330940247,0.11201741546392441
1716758422231918800,2.8719189453125,-0.05978843569755554,-0.12919799983501434,0.09674578160047531
1716758422241918700,2.881918701171875,-0.053068917244672775,-0.12186761945486069,0.060704734176397324
1716758422251918800,2.8919189453125,-0.04512767121195793,-0.11209376901388168,0.010002918541431427
1716758422261918700,2.901918701171875,-0.04329507425427437,-0.0907134860754013,-0.048029281198978424
1716758422271918800,2.9119189453125,-0.05062545835971832,-0.06383541971445084,-0.10056369006633759
1716758422281918700,2.921918701171875,-0.06284276396036148,-0.0503963828086853,-0.1408807933330536
1716758422291918800,2.9319189453125,-0.0768926590681076,-0.06872233748435974,-0.1653154045343399
1716758422301918700,2.941918701171875,-0.10804679244756699,-0.10231992602348328,-0.17631098628044128
1716758422311918800,2.9519189453125,-0.1477530300617218,-0.1310305893421173,-0.16409367322921753
1716758422321919500,2.96191943359375,-0.19723311066627502,-0.1719585657119751,-0.1457677185535431
1716758422331919600,2.971919677734375,-0.24182628095149994,-0.2165517359972,-0.13843733072280884
1716758422341919500,2.98191943359375,-0.2638174295425415,-0.24159720540046692,-0.14454598724842072
1716758422351919600,2.991919677734375,-0.2540435791015625,-0.24342979490756989,-0.16348281502723694
1716758422361919500,3.00191943359375,-0.2235003262758255,-0.23182335495948792,-0.20257818698883057
1716758422371919600,3.011919677734375,-0.18562667071819305,-0.21594086289405823,-0.2471713423728943
1716758422381919500,3.02191943359375,-0.1428661048412323,-0.19456058740615845,-0.2819906771183014
1716758422391919600,3.031919677734375,-0.10499246418476105,-0.1359175145626068,-0.2966514229774475
1716758422401919500,3.04191943359375,-0.07994698733091354,-0.05345070734620094,-0.2832123935222626
1716758422411919600,3.051919677734375,-0.06589708477258682,0.044287730008363724,-0.23373231291770935
1716758422421919500,3.06191943359375,-0.0567341111600399,0.13347405195236206,-0.16898059844970703
1716758422431919900,3.071919921875,-0.06650795042514801,0.15913039445877075,-0.1249983012676239
1716758422441920000,3.081919921875,-0.08544477820396423,0.11392636597156525,-0.10300715267658234
1716758422451920000,3.091919921875,-0.09460775554180145,0.07299839705228806,-0.0944550409913063
1716758422461920000,3.101919921875,-0.09827294945716858,0.06261368840932846,-0.08712465316057205
1716758422471919900,3.111919921875,-0.09949467331171036,0.055894169956445694,-0.08712465316057205
1716758422481919500,3.12191943359375,-0.08422304689884186,0.03573561832308769,-0.08529205620288849
1716758422491919600,3.131919677734375,-0.05795583873987198,0.01863138936460018,-0.07246389240026474
1716758422501919500,3.14191943359375,-0.023747386410832405,0.0064140851609408855,-0.05047274008393288
1716758422511919900,3.151919921875,0.004352414980530739,-0.015577063895761967,-0.008933904580771923
1716758422521920000,3.161919921875,0.020845776423811913,-0.03695734590291977,0.048487428575754166
1716758422531920000,3.171919921875,0.032452214509248734,-0.008246680721640587,0.11568260937929153
1716758422541920000,3.181919921875,0.023289237171411514,0.01191187184303999,0.12118039280176163
1716758422551919900,3.191919921875,-0.0005345070967450738,-0.0003054326225537807,0.0869719386100769
1716758422561920000,3.201919921875,-0.02802344225347042,-0.03145955875515938,0.03627012297511101
1716758422571920100,3.211920166015625,-0.05795583873987198,-0.052839845418930054,-0.024816401302814484
1716758422581920000,3.221919921875,-0.08788824081420898,-0.07238753139972687,-0.07002042979001999
1716758422591920000,3.231920166015625,-0.12087496370077133,-0.09254608303308487,-0.09750936180353165
1716758422601920000,3.241919921875,-0.14530956745147705,-0.10537425428628922,-0.10728321224451065
1716758422611920100,3.251920166015625,-0.15080735087394714,-0.10842858254909515,-0.0999528244137764
1716758422621919500,3.26191943359375,-0.13003793358802795,-0.06261368840932846,-0.0797942727804184
1716758422631919600,3.271919677734375,-0.08666650950908661,0.020463986322283745,-0.05841398984193802
1716758422641919500,3.28191943359375,-0.041462477296590805,0.07177666574716568,-0.03214678168296814
1716758422651919600,3.291919677734375,-0.005421428941190243,0.07177666574716568,-0.006490443367511034
1716758422661919500,3.30191943359375,0.01412625890225172,0.06200282275676727,0.01366810966283083
1716758422671919600,3.311919677734375,0.022678371518850327,0.03329215571284294,0.031383201479911804
1716758422681920000,3.321919921875,0.01595885492861271,-0.0039706239476799965,0.04360050708055496
1716758422691920100,3.331920166015625,0.00007635815563844517,-0.041233405470848083,0.04970915988087654
1716758422701920000,3.341919921875,-0.011530081741511822,-0.05955936014652252,0.052152618765830994
1716758422711920000,3.351920166015625,-0.024358252063393593,-0.04795292019844055,0.05032002553343773
1716758422721920000,3.361919921875,-0.04085161164402962,-0.04856378585100174,0.03443752974271774
1716758422731919600,3.371919677734375,-0.053068917244672775,-0.06994406878948212,0.0032834007870405912
1716758422741919500,3.38191943359375,-0.056123245507478714,-0.08888089656829834,-0.030925052240490913
1716758422751919600,3.391919677734375,-0.06284276396036148,-0.08704829961061478,-0.07002042979001999
1716758422761919500,3.40191943359375,-0.061621032655239105,-0.04306599870324135,-0.12866349518299103
1716758422771919600,3.411919677734375,-0.041462477296590805,-0.010690141469240189,-0.1555415689945221
1716758422781919500,3.42191943359375,-0.0164170041680336,0.010690141469240189,-0.16898059844970703
1716758422791919600,3.431919677734375,-0.004199698567390442,0.008857546374201775,-0.1702023297548294
1716758422801919500,3.44191943359375,-0.0011453722836449742,-0.007024950347840786,-0.1811978965997696
1716758422811919000,3.451919189453125,0.011682798154652119,-0.04184427112340927,-0.22762365639209747
1716758422821919500,3.46191943359375,0.041004329919815063,-0.08521570265293121,-0.2764928936958313
1716758422831919600,3.471919677734375,0.0794888436794281,-0.11820242553949356,-0.31009048223495483
1716758422841919500,3.48191943359375,0.11369729042053223,-0.12308934330940247,-0.3155882656574249
1716758422851919600,3.491919677734375,0.13141238689422607,-0.09804387390613556,-0.2880993187427521
1716758422861919500,3.50191943359375,0.12896892428398132,-0.0607810914516449,-0.23006711900234222
1716758422871919900,3.511919921875,0.10636691004037857,-0.011301007121801376,-0.14943291246891022
1716758422881920000,3.521919921875,0.07276932150125504,0.02474004216492176,-0.060246583074331284
1716758422891920000,3.531919921875,0.031841352581977844,0.016798794269561768,0.015500705689191818
1716758422901920500,3.54192041015625,-0.006032294128090143,0.001527163083665073,0.08269587904214859
1716758422911920400,3.55192041015625,-0.035964690148830414,0.018020525574684143,0.1376737505197525
1716758422921920500,3.56192041015625,-0.06039930135011673,0.04856378585100174,0.15966489911079407
1716758422931920400,3.57192041015625,-0.06895141303539276,0.06811147183179855,0.14866933226585388
1716758422941920500,3.58192041015625,-0.05490151420235634,0.061391957104206085,0.11201741546392441
1716758422951920400,3.59192041015625,-0.02496911771595478,0.03145955875515938,0.05276348441839218
1716758422961920500,3.60192041015625,0.015347989276051521,-0.001527163083665073,-0.013820826075971127
1716758422971920400,3.61192041015625,0.061162881553173065,-0.009468411095440388,-0.07063129544258118
1716758422981920000,3.621919921875,0.10697777569293976,-0.010079276748001575,-0.10789407044649124
1716758422991919600,3.631919677734375,0.1460731476545334,-0.021074850112199783,-0.12133310735225677
1716758423001919500,3.64191943359375,0.1460731476545334,-0.04245513305068016,-0.11339186131954193
1716758423011919600,3.651919677734375,0.1295797973871231,-0.03145955875515938,-0.09689849615097046
1716758423021919500,3.66191943359375,0.0996473953127861,0.0064140851609408855,-0.07551821321249008
1716758423031919600,3.671919677734375,0.05749769136309624,0.019853120669722557,-0.05169447138905525
1716758423041919500,3.68191943359375,0.007406740915030241,-0.013744467869400978,-0.024816401302814484
1716758423051919600,3.691919677734375,-0.05062545835971832,-0.0907134860754013,0.0069485921412706375
1716758423061919500,3.70191943359375,-0.1025490015745163,-0.13775011897087097,0.04909829422831535
1716758423071920000,3.711920166015625,-0.11293371021747589,-0.061391957104206085,0.08086328953504562
1716758423081920000,3.721919921875,-0.0817795842885971,0.08338310569524765,0.0771980956196785
1716758423091920100,3.731920166015625,-0.02557998150587082,0.1670716404914856,0.048487428575754166
1716758423101919700,3.741919677734375,0.026343563571572304,0.17440202832221985,0.008781188167631626
1716758423111919600,3.751919677734375,0.05688682571053505,0.12919799983501434,-0.02054034359753132
1716758423121919200,3.761919189453125,0.055665094405412674,0.04001167416572571,-0.04558581858873367
1716758423131919000,3.771919189453125,0.028787024319171906,-0.06261368840932846,-0.05169447138905525
1716758423141919200,3.781919189453125,-0.009697485715150833,-0.1359175145626068,-0.047418415546417236
1716758423151919000,3.791919189453125,-0.0518471859395504,-0.1615738570690155,-0.03153591975569725
1716758423161919200,3.801919189453125,-0.07261660695075989,-0.08155050873756409,-0.018096882849931717
1716758423171918600,3.811918701171875,-0.061621032655239105,0.20128010213375092,-0.056581392884254456
1716758423181919200,3.821919189453125,-0.021303925663232803,0.6435465216636658,-0.2007455974817276
1716758423191919000,3.831919189453125,0.016569720581173897,0.9783006906509399,-0.42493313550949097
1716758423201919200,3.841919189453125,0.05688682571053505,1.071763038635254,-0.624686062335968
1716758423211918800,3.8519189453125,0.2010510265827179,1.0192286968231201,-0.748691737651825
1716758423221918700,3.861918701171875,0.27985262870788574,0.7919867634773254,-0.7059311270713806
1716758423231918600,3.871918701171875,0.28473955392837524,0.470060795545578,-0.5745950937271118
1716758423241918700,3.881918701171875,0.21510092914104462,-0.01863138936460018,-0.38950294256210327
1716758423251918600,3.891918701171875,0.0898735523223877,-0.5164865851402283,-0.1964695304632187
1716758423261919200,3.901919189453125,-0.03779728710651398,-0.8005388975143433,-0.016264287754893303
1716758423271919000,3.911919189453125,-0.13614659011363983,-0.7070765495300293,0.0619264654815197
1716758423281919200,3.921919189453125,-0.17890715599060059,-0.40591996908187866,0.019776761531829834
1716758423291919600,3.931919677734375,-0.18135061860084534,-0.2171625941991806,-0.0016035212902352214
1716758423301919500,3.94191943359375,-0.20150917768478394,-0.08277224004268646,0.02038762718439102
1716758423311919600,3.951919677734375,-0.07322747260332108,-0.05650503560900688,0.21708624064922333
1716758423321919700,3.961919677734375,0.11186470091342926,-0.1010981947183609,0.5145776271820068
1716758423331919600,3.971919677734375,0.2315942794084549,-0.3851505517959595,0.7858017683029175
1716758423341919700,3.981919677734375,0.06727153807878494,-1.1542298793792725,0.8627707958221436
1716758423351919600,3.991919677734375,-0.33223432302474976,-2.080301523208618,0.5695554614067078
1716758423361919700,4.001919677734375,-0.4702898859977722,-2.4944682121276855,0.4205043613910675
1716758423371919000,4.011919189453125,-0.38293614983558655,-2.87809157371521,0.40217840671539307
1716758423381919200,4.021919189453125,-0.4250858426094055,-3.355788230895996,0.31238120794296265
1716758423391919000,4.031919189453125,-0.773279070854187,-3.542102098464966,0.24274258315563202
1716758423401919500,4.04191943359375,-1.3389402627944946,-3.5610389709472656,0.24457517266273499
1716758423411919600,4.051919677734375,-1.9229273796081543,-3.299588680267334,0.37774381041526794
1716758423421919500,4.06191943359375,-2.6125943660736084,-2.6587910652160645,0.6996697783470154
1716758423431920000,4.071920166015625,-3.406719207763672,-1.8872681856155396,1.162705659866333
1716758423441920000,4.081919921875,-4.016973495483398,-1.302059292793274,1.8218291997909546
1716758423451920100,4.091920166015625,-2.51119065284729,-2.0228803157806396,2.976975440979004
1716758423461920000,4.101919921875,-1.2809081077575684,-2.9190194606781006,3.2103259563446045
1716758423471920000,4.111920166015625,-1.5234215259552002,-3.3704490661621094,3.4980435371398926
1716758423481919500,4.12191943359375,-2.670626401901245,-3.1670308113098145,4.359363555908203
1716758423491919600,4.131919677734375,-3.602195978164673,-2.754696846008301,4.7845258712768555
1716758423501919200,4.141919189453125,-4.265595436096191,-2.864652633666992,4.7539825439453125
1716758423511919600,4.151919677734375,-4.644942760467529,-3.3600642681121826,4.690452575683594
1716758423521919500,4.16191943359375,-4.878904342651367,-4.000862121582031,4.769865036010742
1716758423531919600,4.171919677734375,-5.153793811798096,-4.790099620819092,5.0502519607543945
1716758423541920000,4.181919921875,-5.528864860534668,-5.670356750488281,5.489464282989502
1716758423551919900,4.191919921875,-5.9100446701049805,-6.669732093811035,5.921956539154053
1716758423561919500,4.20191943359375,-6.299166202545166,-7.567704200744629,6.179131031036377
1716758423571920000,4.211919921875,-6.72432804107666,-7.635509967803955,6.101551055908203
1716758423581920000,4.221919921875,-6.908198833465576,-6.185926914215088,5.233511447906494
1716758423591919900,4.231919921875,-7.057860851287842,-4.999015808105469,4.426558494567871
1716758423601920000,4.241919921875,-7.172092437744141,-4.1163153648376465,3.758272171020508
1716758423611920000,4.251919921875,-7.236844062805176,-3.425426959991455,3.267747163772583
1716758423621920000,4.261919921875,-7.27655029296875,-2.9324586391448975,2.89939546585083
1716758423631919900,4.271919921875,-7.274717807769775,-2.9972102642059326,2.7020859718322754
1716758423641920000,4.281919921875,-7.248450756072998,-3.7113118171691895,2.7216336727142334
1716758423651920400,4.29192041015625,-7.230124473571777,-4.716185092926025,2.879236936569214
1716758423661920500,4.30192041015625,-7.254559516906738,-5.482210159301758,3.0857093334198
1716758423671920400,4.31192041015625,-7.3254194259643555,-5.766262531280518,3.2744667530059814
1716758423681920800,4.321920654296875,-7.401777744293213,-5.083315372467041,3.4259612560272217
1716758423691921000,4.3319208984375,-7.1830878257751465,-4.150524139404297,3.388087749481201
1716758423701920800,4.341920654296875,-6.757925987243652,-3.355788230895996,3.2243757247924805
1716758423711921000,4.3519208984375,-6.324211597442627,-2.875648260116577,2.9195539951324463
1716758423721920800,4.361920654296875,-5.972963809967041,-2.596482753753662,2.4766767024993896
1716758423731921000,4.3719208984375,-5.6614227294921875,-2.4071145057678223,1.9830976724624634
1716758423741920800,4.381920654296875,-5.3737053871154785,-2.267226457595825,1.5457181930541992
1716758423751921000,4.3919208984375,-5.126915454864502,-2.1682662963867188,1.2928199768066406
1716758423761920800,4.401920654296875,-4.925940990447998,-1.9355264902114868,1.3062589168548584
1716758423771921000,4.4119208984375,-4.776278972625732,-1.4223997592926025,1.5414420366287231
1716758423781920800,4.421920654296875,-4.702975273132324,-0.6850853562355042,1.874363660812378
1716758423791921000,4.4319208984375,-4.670599460601807,-0.06017022579908371,2.1865158081054688
1716758423801920800,4.441920654296875,-4.563086986541748,0.2580905556678772,2.4058163166046143
1716758423811921000,4.4519208984375,-4.3608903884887695,0.3643811047077179,2.4559073448181152
1716758423821921300,4.46192138671875,-4.075616359710693,0.26542094349861145,2.2146155834198
1716758423831921400,4.47192138671875,-3.739640712738037,0.06505715101957321,1.6856062412261963
1716758423841920800,4.481920654296875,-3.516063928604126,-0.12797626852989197,1.0350347757339478
1716758423851921000,4.4919208984375,-3.4592535495758057,-0.1518000066280365,0.45837801694869995
1716758423861920800,4.501920654296875,-3.494072914123535,0.02535090781748295,0.05826127156615257
1716758423871920400,4.51192041015625,-3.558213710784912,0.28619036078453064,-0.2264019250869751
1716758423881920500,4.52192041015625,-3.5850918292999268,0.4889976382255554,-0.4646393656730652
1716758423891920400,4.53192041015625,-3.605250358581543,0.5928447246551514,-0.625296950340271
1716758423901920500,4.54192041015625,-3.6003634929656982,0.589179515838623,-0.6491206884384155
1716758423911920400,4.55192041015625,-3.4592535495758057,0.5543602108955383,-0.4780784249305725
1716758423921920500,4.56192041015625,-3.3303608894348145,0.5109887719154358,-0.3626248836517334
1716758423931921000,4.5719208984375,-3.1287753582000732,0.3827070891857147,-0.27893635630607605
1716758423941920800,4.581920654296875,-2.8215103149414062,0.04306599870324135,-0.1952477991580963
1716758423951920400,4.59192041015625,-2.463543176651001,-0.5067127346992493,-0.051083605736494064
1716758423961920500,4.60192041015625,-2.139784574508667,-1.1035280227661133,0.12423472106456757
1716758423971920100,4.611920166015625,-1.9296469688415527,-1.7229454517364502,0.2855031490325928
1716758423985927000,4.625927001953125,-1.8441258668899536,-2.224465847015381,0.4247804284095764
1716758423995927000,4.635927001953125,-1.846569299697876,-2.478585720062256,0.5292384028434753
1716758424005927000,4.645927001953125,-1.856343150138855,-2.4419338703155518,0.5774967074394226
1716758424015927000,4.655927001953125,-1.8135825395584106,-2.3215932846069336,0.5536729693412781
1716758424025927000,4.665927001953125,-1.6590336561203003,-2.308154344558716,0.4559345543384552
1716758424035926500,4.675926513671875,-1.4238505363464355,-2.4523184299468994,0.3300963044166565
1716758424045926400,4.685926513671875,-1.172174096107483,-2.5671610832214355,0.254349023103714
1716758424055926500,4.695926513671875,-0.9675341844558716,-2.5946500301361084,0.2549598813056946
1716758424065926400,4.705926513671875,-0.8239808678627014,-2.5085182189941406,0.34842225909233093
1716758424075927000,4.715927001953125,-0.7653377652168274,-2.2501220703125,0.4974733889102936
1716758424085927400,4.725927490234375,-0.7879397869110107,-1.9434677362442017,0.5958226919174194
1716758424095927300,4.73592724609375,-0.8508589267730713,-1.891544222831726,0.6318637132644653
1716758424105927400,4.745927490234375,-0.9284388422966003,-1.9703458547592163,0.648357093334198
1716758424115927300,4.75592724609375,-1.0145708322525024,-1.9477438926696777,0.609872579574585
1716758424125927000,4.765927001953125,-1.08482027053833,-1.7986927032470703,0.5035820603370667
1716758424135927000,4.775927001953125,-1.14163076877594,-1.5091426372528076,0.3410918712615967
1716758424145927000,4.785927001953125,-1.2045499086380005,-0.9966266751289368,-0.013209961354732513
1716758424155927000,4.795927001953125,-1.181947946548462,-0.7644978761672974,-0.23251058161258698
1716758424165927000,4.805927001953125,-0.7158576846122742,-0.9080511927604675,-0.7053202986717224
1716758424175927000,4.815927001953125,-0.45257478952407837,-0.6392704844474792,-0.9417251348495483
1716758424185927400,4.825927490234375,-0.4812854528427124,-0.15424346923828125,-0.8568148612976074
1716758424195927300,4.83592724609375,-0.4049273133277893,0.2825251817703247,-0.6924921274185181
1716758424205927400,4.845927490234375,-0.4055381715297699,0.4859432876110077,-0.5629886984825134
1716758424215927300,4.85592724609375,-0.4159228801727295,0.37048977613449097,-0.4573090076446533
1716758424225927400,4.865927490234375,-0.26565003395080566,0.24098633229732513,-0.34490978717803955
1716758424235927000,4.875927001953125,-0.018249599263072014,0.19028452038764954,-0.2709950804710388
1716758424245927000,4.885927001953125,0.23709207773208618,0.18478673696517944,-0.272827684879303
1716758424255927000,4.895927001953125,0.5168683528900146,0.22815817594528198,-0.3473532497882843
1716758424265927000,4.905927001953125,0.8204683661460876,0.3081815242767334,-0.4902957081794739
1716758424275927300,4.91592724609375,1.0422124862670898,0.38637226819992065,-0.6784422397613525
1716758424285927400,4.925927490234375,1.1576659679412842,0.470671683549881,-0.8659778237342834
1716758424295927800,4.935927734375,1.211422085762024,0.5849034786224365,-1.0296896696090698
1716758424305928000,4.945927978515625,1.2468522787094116,0.5965099334716797,-1.1872929334640503
1716758424315927800,4.955927734375,1.2657891511917114,0.4847215712070465,-1.2886966466903687
1716758424325928200,4.96592822265625,1.2902237176895142,0.3747658133506775,-1.3345115184783936
1716758424335928300,4.97592822265625,1.2975541353225708,0.2721404731273651,-1.3436744213104248
1716758424345928200,4.98592822265625,1.2450196743011475,0.08216137439012527,-1.3125203847885132
1716758424355928300,4.99592822265625,1.1497247219085693,-0.0027488935738801956,-1.2557098865509033
1716758424365928200,5.00592822265625,1.089859962463379,0.1866193264722824,-1.1885147094726562
1716758424375927800,5.015927734375,1.1698832511901855,0.6673702597618103,-1.0419070720672607
1716758424385927400,5.025927490234375,1.3012193441390991,0.8659014701843262,-0.918512225151062
1716758424395927300,5.03592724609375,1.367803692817688,1.130406141281128,-0.7321983575820923
1716758424405927400,5.045927490234375,1.394681692123413,1.4285084009170532,-0.45181119441986084
1716758424415927300,5.05592724609375,1.4582116603851318,1.6575828790664673,-0.09812022745609283
1716758424425927400,5.065927490234375,1.5070809125900269,1.7620408535003662,0.3099377453327179
1716758424435927800,5.075927734375,1.4942528009414673,1.6581937074661255,0.7088327407836914
1716758424445928000,5.085927978515625,1.4148402214050293,1.245248794555664,1.0887908935546875
1716758424455927800,5.095927734375,1.3452016115188599,0.6514877676963806,1.5066227912902832
1716758424465928000,5.105927978515625,1.3268756866455078,0.10720685124397278,1.9592739343643188
1716758424475927800,5.115927734375,1.328708291053772,-0.2330450862646103,2.427196741104126
1716758424485927400,5.125927490234375,1.3238213062286377,-0.3442225754261017,2.82364821434021
1716758424495927300,5.13592724609375,1.289612889289856,-0.2177734673023224,3.013627290725708
1716758424505927400,5.145927490234375,1.2547935247421265,0.08521570265293121,2.983083963394165
1716758424515927300,5.15592724609375,1.2266937494277954,0.5293147563934326,2.9617037773132324
1716758424525927400,5.165927490234375,1.2095896005630493,0.8830057382583618,3.033174991607666
1716758424535927300,5.17592724609375,1.234024167060852,0.9587529897689819,3.1406872272491455
1716758424545927400,5.185927490234375,1.2957215309143066,0.9159924387931824,3.28118634223938
1716758424555927300,5.19592724609375,1.3659710884094238,0.8811731338500977,3.4204635620117188
1716758424565927400,5.205927490234375,1.4093425273895264,0.7547240257263184,3.4974327087402344
1716758424575927800,5.215927734375,1.4197272062301636,0.5354233980178833,3.4974327087402344
1716758424585928000,5.225927978515625,1.3989577293395996,0.2984076738357544,3.4888803958892822
1716758424595927300,5.23592724609375,1.347034215927124,0.24892759323120117,3.465667724609375
1716758424605927400,5.245927490234375,1.2291371822357178,0.5396994352340698,3.3074533939361572
1716758424615927300,5.25592724609375,1.1320096254348755,0.7669413089752197,3.089374542236328
1716758424625927000,5.265927001953125,0.9243154525756836,0.9770789742469788,2.809598445892334
1716758424635926800,5.2759267578125,0.5944482684135437,1.2037099599838257,2.5102744102478027
1716758424645927000,5.285927001953125,0.22976168990135193,1.4773776531219482,2.1956787109375
1716758424655926800,5.2959267578125,-0.055512379854917526,1.7638733386993408,1.835268259048462
1716758424665927000,5.305927001953125,-0.2027309089899063,1.8854355812072754,1.4705817699432373
1716758424675926800,5.3159267578125,-0.25037840008735657,1.8891007900238037,1.1468231678009033
1716758424685927400,5.325927490234375,-0.2131156176328659,1.8286250829696655,0.8676577210426331
1716758424695927300,5.33592724609375,-0.13614659011363983,1.616044044494629,0.6630178689956665
1716758424705927400,5.345927490234375,-0.09399688988924026,1.2776246070861816,0.5860488414764404
1716758424715927300,5.35592724609375,-0.11049024760723114,0.9019425511360168,0.6660721898078918
1716758424725927400,5.365927490234375,-0.17707456648349762,0.5623014569282532,0.8597164750099182
1716758424735926800,5.3759267578125,-0.2882520258426666,0.3081815242767334,1.0814605951309204
1716758424745927000,5.385927001953125,-0.39759692549705505,0.1463022232055664,1.2665526866912842
1716758424755926800,5.3959267578125,-0.4599051773548126,0.10842858254909515,1.3667346239089966
1716758424765927000,5.405927001953125,-0.43363797664642334,0.22876903414726257,1.370399832725525
1716758424775926800,5.4159267578125,-0.13064880669116974,0.6258314251899719,1.22990083694458
1716758424785927000,5.425927001953125,0.33910655975341797,1.2983940839767456,0.8560512661933899
1716758424795926800,5.4359267578125,0.5730679631233215,2.0008890628814697,0.2598468065261841
1716758424805927000,5.445927001953125,0.46066874265670776,2.300213098526001,-0.10545061528682709
1716758424815926800,5.4559267578125,0.33483052253723145,2.1847596168518066,-0.1457677185535431
1716758424825927400,5.465927490234375,0.3281109929084778,1.7993035316467285,-0.018707748502492905
1716758424835927300,5.47592724609375,0.34521523118019104,0.9288206100463867,0.14072808623313904
1716758424845927400,5.485927490234375,0.3116176426410675,0.18112154304981232,0.23296873271465302
1716758424855927300,5.49592724609375,0.27924177050590515,-0.5146539807319641,0.4198935031890869
1716758424865927400,5.505927490234375,0.29329168796539307,-1.0039570331573486,0.6929502487182617
1716758424875926800,5.5159267578125,0.4185190498828888,-1.2855658531188965,1.0185414552688599
1716758424885927000,5.525927001953125,0.7288386225700378,-0.9001099467277527,1.4583643674850464
1716758424895926800,5.5359267578125,1.0580949783325195,-0.3295617997646332,1.6232980489730835
1716758424905927000,5.545927001953125,1.0189995765686035,-0.0503963828086853,1.5121206045150757
1716758424915926800,5.5559267578125,0.7709882855415344,0.013133603148162365,1.4858533143997192
1716758424925927000,5.565927001953125,0.4936554729938507,0.2941316068172455,1.408273458480835
1716758424935927300,5.57592724609375,0.24747678637504578,0.6013968586921692,1.3435217142105103
1716758424945927400,5.585927490234375,0.01595885492861271,0.7241807579994202,1.210353136062622
1716758424955927300,5.59592724609375,-0.14469870924949646,0.7791585922241211,1.0295369625091553
1716758424965927400,5.605927490234375,-0.22716552019119263,0.6875288486480713,0.8365035653114319
1716758424975927300,5.61592724609375,-0.28764116764068604,0.5354233980178833,0.7754170894622803
1716758424985927000,5.625927001953125,-0.3804926872253418,0.4046982228755951,0.7552585005760193
1716758424995926800,5.6359267578125,-0.4702898859977722,0.4291328489780426,0.716163158416748
1716758425005927000,5.645927001953125,-0.5075526833534241,0.489608496427536,0.6599635481834412
1716758425015926800,5.6559267578125,-0.5570327639579773,0.4743368625640869,0.6220899224281311
1716758425025927000,5.665927001953125,-0.6407212615013123,0.43279802799224854,0.5652794241905212
1716758425035926800,5.6759267578125,-0.6694319248199463,0.43768495321273804,0.44432809948921204
1716758425045927000,5.685927001953125,-0.6578255295753479,0.46761733293533325,0.27695104479789734
1716758425055926800,5.6959267578125,-0.7073056101799011,0.3680463135242462,0.21097758412361145
1716758425065927000,5.705927001953125,-0.8007679581642151,0.20616702735424042,0.2897791862487793
1716758425075926800,5.7159267578125,-0.7555639743804932,0.22571471333503723,0.3588069677352905
1716758425085927000,5.725927001953125,-0.7445683479309082,0.18600846827030182,0.2482403665781021
1716758425095926800,5.7359267578125,-0.7256315350532532,0.2874121069908142,0.1676061451435089
1716758425105927000,5.745927001953125,-0.6743188500404358,0.3289509415626526,0.09552405029535294
1716758425115926800,5.7559267578125,-0.6584363579750061,0.20372356474399567,-0.022372938692569733
1716758425125926400,5.765926513671875,-0.6578255295753479,-0.010690141469240189,-0.10117455571889877
1716758425135926500,5.775926513671875,-0.6553820371627808,-0.14752395451068878,-0.08529205620288849
1716758425145926400,5.785926513671875,-0.6376669406890869,-0.1872301995754242,-0.0016035212902352214
1716758425155926500,5.795926513671875,-0.6449973583221436,-0.21838432550430298,0.0771980956196785
1716758425165926400,5.805926513671875,-0.7580074071884155,-0.16462817788124084,0.019776761531829834
1716758425175926500,5.815926513671875,-0.8300895094871521,-0.06200282275676727,-0.16470454633235931
1716758425185927000,5.825927001953125,-0.7488444447517395,-0.26481008529663086,-0.2569451928138733
1716758425195926800,5.8359267578125,-0.6773731708526611,-0.6789767146110535,-0.2215150147676468
1716758425205927000,5.845927001953125,-0.6181192994117737,-0.9642508029937744,-0.09262244403362274
1716758425215926800,5.8559267578125,-0.6162866950035095,-1.1377365589141846,0.0668133869767189
1716758425225927000,5.865927001953125,-0.7592291235923767,-1.2751811742782593,0.25129470229148865
1716758425235926500,5.875926513671875,-1.0457249879837036,-1.0228939056396484,0.4107305109500885
1716758425245926400,5.885926513671875,-1.2118803262710571,-0.5128213763237,0.31604641675949097
1716758425255926500,5.895926513671875,-0.9424887299537659,-0.6869179606437683,0.02955060638487339
1716758425265926400,5.905926513671875,-0.5613088011741638,-0.6136141419410706,-0.14332425594329834
1716758425275926500,5.915926513671875,-0.35727980732917786,-0.3851505517959595,-0.24228443205356598
1716758425285926400,5.925926513671875,-0.2754238545894623,-0.28680121898651123,-0.34490978717803955
1716758425295926500,5.935926513671875,-0.3053562641143799,-0.44623705744743347,-0.43165266513824463
1716758425305926400,5.945926513671875,-0.3285691440105438,-0.6154467463493347,-0.38461601734161377
1716758425315926500,5.955926513671875,-0.3585015535354614,-0.8817839622497559,-0.35040757060050964
1716758425325927000,5.965927001953125,-0.3383429944515228,-0.9410378932952881,-0.3412446081638336
1716758425335926800,5.9759267578125,-0.2754238545894623,-0.8616254329681396,-0.3974441885948181
1716758425345927000,5.985927001953125,-0.24304801225662231,-0.845132052898407,-0.3986659348011017
1716758425355926800,5.9959267578125,-0.2393828183412552,-0.8371908068656921,-0.30520355701446533
1716758425365927000,6.005927001953125,-0.21616993844509125,-0.8378016948699951,-0.2062433809041977
1716758425375926800,6.0159267578125,-0.21250474452972412,-0.8017606139183044,-0.20013472437858582
1716758425385927000,6.025927001953125,-0.2534327208995819,-0.47311514616012573,-0.24472789466381073
1716758425395926800,6.0359267578125,-0.2338850349187851,0.005803219974040985,-0.21784982085227966
1716758425405927000,6.045927001953125,-0.2027309089899063,0.2519819140434265,-0.13843733072280884
1716758425415926800,6.0559267578125,-0.18196149170398712,0.12980885803699493,0.05337435007095337
1716758425425927000,6.065927001953125,-0.17157678306102753,-0.01924225501716137,0.24701863527297974
1716758425435926800,6.0759267578125,-0.17951802909374237,-0.04306599870324135,0.34781140089035034
1716758425445927000,6.085927001953125,-0.23693935573101044,0.33200526237487793,0.36247217655181885
1716758425455926800,6.0959267578125,-0.21067215502262115,0.33567044138908386,0.435165137052536
1716758425465927000,6.105927001953125,-0.061621032655239105,-0.4193589985370636,0.45959973335266113
1716758425475926800,6.1159267578125,0.023900102823972702,-1.2330315113067627,0.47364965081214905
1716758425485926400,6.125926513671875,-0.06528622657060623,-1.7143932580947876,0.43821945786476135
1716758425495926500,6.135926513671875,-0.2027309089899063,-1.8726073503494263,0.4369977116584778
1716758425505926400,6.145926513671875,-0.2888629138469696,-1.8017470836639404,0.41378483176231384
1716758425515926500,6.155926513671875,-0.34322991967201233,-1.6129896640777588,0.3258202373981476
1716758425525926400,6.165926513671875,-0.42936190962791443,-1.6123788356781006,0.27206411957740784
1716758425535926500,6.175926513671875,-0.4904484450817108,-1.6771305799484253,0.23785565793514252
1716758425545926400,6.185926513671875,-0.6382778286933899,-1.5555683374404907,0.12912164628505707
1716758425555926500,6.195926513671875,-0.8435285687446594,-1.1652255058288574,0.048487428575754166
1716758425565926400,6.205926513671875,-0.9009498953819275,-0.8084801435470581,0.05887213721871376
1716758425575926800,6.2159267578125,-0.8215373754501343,-0.6527095437049866,0.11140654981136322
1716758425585927000,6.225927001953125,-0.7207446098327637,-0.6343835592269897,0.18715384602546692
1716758425595926800,6.2359267578125,-0.6132323741912842,-0.6954700946807861,0.27756190299987793
1716758425605927000,6.245927001953125,-0.44341179728507996,-0.664315938949585,0.41867175698280334
1716758425615926800,6.2559267578125,-0.17218764126300812,-0.47739118337631226,0.648357093334198
1716758425625926400,6.265926513671875,0.14301882684230804,0.14813482761383057,0.8878162503242493
1716758425635926500,6.275926513671875,0.4191299080848694,0.589179515838623,1.027093529701233
1716758425645926400,6.285926513671875,0.6078872680664062,0.6765332818031311,1.0356457233428955
1716758425655926500,6.295926513671875,0.7459428310394287,0.5684100985527039,1.144379734992981
1716758425665926400,6.305926513671875,0.7123452425003052,-0.2018909603357315,1.1193342208862305
1716758425675926500,6.315926513671875,0.6518695950508118,-1.4132367372512817,0.838947057723999
1716758425685927000,6.325927001953125,0.7606036067008972,-1.788308024406433,0.7888560891151428
1716758425695926800,6.3359267578125,0.7996989488601685,-1.6752979755401611,0.657520055770874
1716758425705927000,6.345927001953125,0.6805802583694458,-1.902539849281311,0.2983313202857971
1716758425715926800,6.3559267578125,0.4985423982143402,-2.2317962646484375,0.045433104038238525
1716758425725927000,6.365927001953125,0.2822960913181305,-2.391842842102051,-0.09140071272850037
1716758425735926800,6.3759267578125,0.0342848114669323,-2.364353895187378,-0.19463694095611572
1716758425745927000,6.385927001953125,-0.2650391459465027,-2.2287418842315674,-0.3320816159248352
1716758425755926800,6.3959267578125,-0.8545241355895996,-1.2122620344161987,-0.8861364126205444
1716758425765927000,6.405927001953125,-1.1471285820007324,-0.28069257736206055,-1.1591931581497192
1716758425775926800,6.4159267578125,-0.8026005625724792,-0.5018258094787598,-0.5776494741439819
1716758425785927000,6.425927001953125,-0.45440739393234253,-0.9049968719482422,0.0466548316180706
1716758425795926800,6.4359267578125,-0.38843393325805664,-1.0998629331588745,0.27695104479789734
1716758425805927000,6.445927001953125,-0.44341179728507996,-1.0283915996551514,0.21952970325946808
1716758425815926800,6.4559267578125,-0.3004693388938904,-0.7351763248443604,0.04970915988087654
1716758425825927400,6.465927490234375,-0.22105686366558075,-0.4156937897205353,-0.06269004940986633
1716758425835927300,6.47592724609375,-0.2632065713405609,-0.21594086289405823,-0.11583532392978668
1716758425845927400,6.485927490234375,-0.3951534628868103,-0.08521570265293121,-0.27343854308128357
1716758425855927300,6.49592724609375,-0.5674174427986145,0.19517144560813904,-0.5923101902008057
1716758425865927400,6.505927490234375,-0.6480516791343689,0.7076873779296875,-0.8812494874000549
1716758425875926800,6.5159267578125,-0.5784130096435547,0.9306532144546509,-0.9020189046859741
1716758425885927000,6.525927001953125,-0.4770093858242035,0.8604037165641785,-0.815886914730072
1716758425895926800,6.5359267578125,-0.4256967306137085,0.8946121335029602,-0.7816784381866455
1716758425905927000,6.545927001953125,-0.38171443343162537,1.3264938592910767,-0.7920631766319275
1716758425915926800,6.5559267578125,-0.2851977050304413,1.5928311347961426,-0.7163158655166626
1716758425925927000,6.565927001953125,-0.15080735087394714,1.024726390838623,-0.4829653203487396
1716758425935927300,6.57592724609375,-0.050014592707157135,0.3032945990562439,-0.22395847737789154
1716758425945927400,6.585927490234375,0.022067507728934288,0.035124752670526505,-0.08895725011825562
1716758425955927300,6.59592724609375,0.07582364976406097,0.15302173793315887,-0.08040513843297958
1716758425965927400,6.605927490234375,0.09659306704998016,0.4156937897205353,-0.08529205620288849
1716758425975927800,6.615927734375,0.12102767825126648,0.8341364860534668,-0.08834638446569443
1716758425985927400,6.625927490234375,0.2767983078956604,1.4535537958145142,-0.08834638446569443
1716758425995927300,6.63592724609375,0.3739258944988251,1.7186694145202637,-0.056581392884254456
1716758426005927400,6.645927490234375,0.4747186601161957,1.979508876800537,-0.025427265092730522
1716758426015927300,6.65592724609375,0.529696524143219,2.2745566368103027,-0.013209961354732513
1716758426025927400,6.665927490234375,0.5351943373680115,2.5860979557037354,-0.06879869848489761
1716758426035927300,6.67592724609375,0.5345834493637085,2.967888832092285,-0.10300715267658234
1716758426045927400,6.685927490234375,0.5535202622413635,3.2067370414733887,-0.0999528244137764
1716758426055927300,6.69592724609375,0.49732068181037903,3.185356855392456,-0.09201157838106155
1716758426065927400,6.705927490234375,0.38980838656425476,3.2085697650909424,-0.030925052240490913
1716758426075927800,6.715927734375,0.28962647914886475,3.5097262859344482,0.11079568415880203
1716758426085927700,6.725927734375,0.2609158158302307,3.986201047897339,0.22014056146144867
1716758426095927800,6.735927734375,0.3275001347064972,4.364937782287598,0.2677880525588989
1716758426105927700,6.745927734375,0.33421963453292847,4.556138515472412,0.26656633615493774
1716758426115927800,6.755927734375,0.216322660446167,4.271475315093994,0.18898643553256989
1716758426125927700,6.765927734375,0.08376489579677582,3.609908103942871,0.09980010986328125
1716758426135927800,6.775927734375,0.03611740842461586,3.05157732963562,0.052152618765830994
1716758426145927700,6.785927734375,0.04528038576245308,2.593428373336792,0.08513934165239334
1716758426155927800,6.795927734375,0.07276932150125504,2.1029036045074463,0.17066048085689545
1716758426165927700,6.805927734375,0.14668402075767517,1.8005253076553345,0.1883755773305893
1716758426175927800,6.815927734375,0.21876612305641174,1.71989107131958,0.11323914676904678
1716758426185928200,6.82592822265625,0.34460434317588806,1.5470162630081177,0.02955060638487339
1716758426195928300,6.83592822265625,0.5235878825187683,1.2214250564575195,0.00022907447419129312
1716758426205928200,6.84592822265625,0.6842454075813293,0.894001305103302,-0.008933904580771923
1716758426215928300,6.85592822265625,0.7153995633125305,0.7425066828727722,-0.05169447138905525
1716758426225928200,6.86592822265625,0.6115524768829346,0.7559457421302795,-0.0944550409913063
1716758426235927800,6.875927734375,0.47594037652015686,0.7400632500648499,-0.11278099566698074
1716758426245927700,6.885927734375,0.3226132094860077,0.7644978761672974,-0.13232868909835815
1716758426255927800,6.895927734375,0.13141238689422607,0.8964447379112244,-0.18364135921001434
1716758426265927700,6.905927734375,-0.07994698733091354,1.1902709007263184,-0.19463694095611572
1716758426275927300,6.91592724609375,-0.27114781737327576,1.608102798461914,-0.1958586722612381
1716758426285927400,6.925927490234375,-0.3499494194984436,2.1902573108673096,-0.19219347834587097
1716758426295927300,6.93592724609375,-0.2748129963874817,3.0106494426727295,-0.12133310735225677
1716758426305927400,6.945927490234375,-0.15141822397708893,3.838982582092285,-0.01687515154480934
1716758426315927300,6.95592724609375,-0.07628180086612701,4.502382278442383,0.14928019046783447
1716758426325927700,6.965927734375,-0.015806138515472412,4.47183895111084,0.1975385546684265
1716758426335927800,6.975927734375,0.1308015137910843,3.718031406402588,0.13645201921463013
1716758426345927700,6.985927734375,0.4337906837463379,2.9575040340423584,0.03871358558535576
1716758426355927800,6.995927734375,0.7037931084632874,2.71376895904541,0.004505131393671036
1716758426365927700,7.005927734375,0.9035460352897644,2.945286750793457,0.05520694702863693
1716758426375927300,7.01592724609375,1.073366641998291,3.330742835998535,0.12179125845432281
1716758426385927400,7.025927490234375,1.1796571016311646,3.5866951942443848,0.1724930703639984
1716758426395927300,7.03592724609375,1.166828989982605,3.595858335494995,0.20059287548065186
1716758426405927400,7.045927490234375,1.073366641998291,3.408933401107788,0.2335795909166336
1716758426415927300,7.05592724609375,0.976239025592804,3.0363056659698486,0.3307071626186371
1716758426425927000,7.065927001953125,0.8681158423423767,2.60992169380188,0.4760931134223938
1716758426435927300,7.07592724609375,0.7538840770721436,2.1536054611206055,0.6599635481834412
1716758426445927400,7.085927490234375,0.41974079608917236,1.6691893339157104,0.7741953134536743
1716758426455927300,7.09592724609375,0.16867516934871674,1.6575828790664673,0.7485389709472656
1716758426465927400,7.105927490234375,0.04833471402525902,1.680795669555664,0.7253261208534241
1716758426475927300,7.11592724609375,0.029397889971733093,1.711338996887207,0.7186065912246704
1716758426485927000,7.125927001953125,0.06666067242622375,1.9257526397705078,0.6257550716400146
1716758426495926800,7.1359267578125,0.019624045118689537,2.42055344581604,0.3337614834308624
1716758426505927000,7.145927001953125,-0.17157678306102753,2.470644474029541,0.13095423579216003
1716758426515926800,7.1559267578125,-0.24488060176372528,2.110844850540161,0.14011721312999725
1716758426525927000,7.165927001953125,-0.17524196207523346,2.1029036045074463,0.17982345819473267
1716758426535926800,7.1759267578125,-0.2638174295425415,2.422996997833252,0.2286926805973053
1716758426545927400,7.185927490234375,-0.3658319115638733,2.6148087978363037,0.20609065890312195
1716758426555927300,7.19592724609375,-0.4318053722381592,2.819448471069336,0.08330674469470978
1716758426565927400,7.205927490234375,-0.572915256023407,3.257438898086548,-0.0339793786406517
1716758426575927300,7.21592724609375,-0.7268533110618591,3.8768563270568848,-0.19952386617660522
1716758426585927400,7.225927490234375,-0.6132323741912842,4.502993106842041,-0.27893635630607605
1716758426595927300,7.23592724609375,-0.25221097469329834,4.144415378570557,-0.14149166643619537
1716758426605927400,7.245927490234375,-0.15080735087394714,3.3515121936798096,-0.13110695779323578
1716758426615927300,7.25592724609375,-0.18012888729572296,3.2641584873199463,-0.2771037518978119
1716758426625927000,7.265927001953125,-0.17035505175590515,3.617849349975586,-0.292375385761261
1716758426635926800,7.2759267578125,-0.030466904863715172,3.8964040279388428,-0.31436651945114136
1716758426645927000,7.285927001953125,0.1356884390115738,3.9843685626983643,-0.42004621028900146
1716758426655926800,7.2959267578125,0.24320071935653687,3.9037344455718994,-0.5037347674369812
1716758426665927000,7.305927001953125,0.4423427879810333,3.5188891887664795,-0.4847979247570038
1716758426675926800,7.3159267578125,0.5968917012214661,2.8658742904663086,-0.40660718083381653
1716758426685927400,7.325927490234375,0.5895613431930542,2.6667323112487793,-0.3278055489063263
1716758426695927300,7.33592724609375,0.5913938879966736,2.5983152389526367,-0.230677992105484
1716758426705927400,7.345927490234375,0.6249914765357971,2.660012722015381,-0.04008803144097328
1716758426715927300,7.35592724609375,0.5767331719398499,2.6337454319000244,0.15172365307807922
1716758426725927400,7.365927490234375,0.4796055853366852,2.15543794631958,0.26167941093444824
1716758426735926800,7.3759267578125,0.4038582742214203,1.333213448524475,0.3038291037082672
1716758426745927000,7.385927001953125,0.1906663179397583,0.6154467463493347,0.28183794021606445
1716758426755926800,7.3959267578125,-0.21433734893798828,0.166460782289505,0.2629011273384094
1716758426765927000,7.405927001953125,-0.4672355651855469,-0.058337632566690445,0.24518603086471558
1716758426775926800,7.4159267578125,-0.5319872498512268,-0.2018909603357315,0.2189188301563263
1716758426785927000,7.425927001953125,-0.4806745946407318,-0.26908615231513977,0.15355625748634338
1716758426795926800,7.4359267578125,-0.40370556712150574,-0.3442225754261017,0.11446087807416916
1716758426805927000,7.445927001953125,-0.3249039649963379,-0.35521814227104187,0.045433104038238525
1716758426815926800,7.4559267578125,-0.2235003262758255,-0.09437867999076843,-0.1347721517086029
1716758426825927400,7.465927490234375,-0.19723311066627502,0.3643811047077179,-0.3229186534881592
1716758426835927300,7.47592724609375,-0.2387719452381134,0.6539312601089478,-0.3687335252761841
1716758426845927000,7.485927001953125,-0.23510676622390747,0.6899722814559937,-0.3778965175151825
1716758426855926800,7.4959267578125,0.06788240373134613,0.5232060551643372,-0.3271946907043457
1716758426865927000,7.505927001953125,0.26885706186294556,0.531147301197052,-0.21235203742980957
1716758426875926800,7.5159267578125,0.3275001347064972,0.8628471493721008,0.011835514567792416
1716758426885927000,7.525927001953125,0.11247556656599045,1.1701123714447021,0.22014056146144867
1716758426895926800,7.5359267578125,-0.5735260844230652,1.2898420095443726,0.4168391823768616
1716758426905927000,7.545927001953125,-0.8233699798583984,1.0882564783096313,0.4876995384693146
1716758426915926800,7.5559267578125,-0.6187301278114319,1.0326677560806274,0.405843585729599
1716758426925927000,7.565927001953125,-0.4556291103363037,1.2153164148330688,0.19998200237751007
1716758426935927000,7.575927001953125,-0.3639993369579315,1.4816536903381348,-0.039477165788412094
1716758426945927000,7.585927001953125,-0.21739166975021362,1.5793920755386353,-0.2105194330215454
1716758426955927000,7.595927001953125,0.0019089538836851716,1.4407256841659546,-0.2667190432548523
1716758426965927000,7.605927001953125,0.19372063875198364,0.9673051238059998,-0.21235203742980957
1716758426975927000,7.615927001953125,0.3268892765045166,0.15485434234142303,-0.14332425594329834
1716758426985926400,7.625926513671875,0.500374972820282,-0.8151996731758118,-0.1347721517086029
1716758426995926500,7.635926513671875,0.7288386225700378,-1.8487836122512817,-0.23923009634017944
1716758427005926400,7.645926513671875,1.0978012084960938,-2.638021469116211,-0.5073999166488647
1716758427015926500,7.655926513671875,1.6390278339385986,-2.459648847579956,-0.8580365777015686
1716758427025926400,7.665926513671875,1.4716507196426392,-1.7333301305770874,-0.8592583537101746
1716758427035926500,7.675926513671875,0.6982953548431396,-1.7400496006011963,-0.44020476937294006
1716758427045926400,7.685926513671875,0.06788240373134613,-2.157881498336792,-0.12744176387786865
1716758427055926500,7.695926513671875,-0.17218764126300812,-2.2177462577819824,-0.0999528244137764
1716758427065926400,7.705926513671875,-0.34811684489250183,-2.431549072265625,-0.03764457255601883
1716758427075927000,7.715927001953125,-0.5185482501983643,-2.964223623275757,0.1175151988863945
1716758427085927000,7.725927001953125,-0.6095671653747559,-3.0918943881988525,0.23541219532489777
1716758427095927000,7.735927001953125,-0.6162866950035095,-2.754696846008301,0.30749428272247314
1716758427105927000,7.745927001953125,-0.630336582660675,-2.2537872791290283,0.3404810130596161
1716758427115927000,7.755927001953125,-0.6431647539138794,-1.710117220878601,0.36247217655181885
1716758427125926400,7.765926513671875,-0.6486625075340271,-1.1688905954360962,0.38385245203971863
1716758427135926500,7.775926513671875,-0.6150649189949036,-0.5091561675071716,0.5475643277168274
1716758427145926400,7.785926513671875,-0.5936846733093262,-0.27030786871910095,0.7723627686500549
1716758427155926500,7.795926513671875,-0.5374850630760193,-0.36071592569351196,0.9855546951293945
1716758427165926400,7.805926513671875,-0.4501313269138336,-0.5732970237731934,0.9800569415092468
1716758427175927000,7.815927001953125,-0.31268665194511414,-0.8384125232696533,0.7601454257965088
1716758427185927400,7.825927490234375,-0.15630514919757843,-1.266018271446228,0.44860416650772095
1716758427195927600,7.835927490234375,0.0391717329621315,-1.8176295757293701,0.152334526181221
1716758427205927400,7.845927490234375,0.23831380903720856,-2.2739458084106445,-0.04619668424129486
1716758427215927600,7.855927490234375,0.316504567861557,-2.5280659198760986,-0.030925052240490913
1716758427225927400,7.865927490234375,0.2609158158302307,-2.4999659061431885,0.04237877577543259
1716758427235927300,7.87592724609375,0.11064296960830688,-2.267226457595825,0.06742425262928009
1716758427245927400,7.885927490234375,-0.09033169597387314,-2.154827117919922,0.030161472037434578
1716758427255927300,7.89592724609375,-0.25709789991378784,-2.215913772583008,-0.04130976274609566
1716758427265927700,7.905927734375,-0.40431642532348633,-2.339919328689575,-0.07246389240026474
1716758427275927800,7.915927734375,-0.5081635117530823,-2.4688119888305664,-0.08773551881313324
1716758427285927700,7.925927734375,-0.5545892715454102,-2.5470025539398193,-0.14637859165668488
1716758427295927300,7.93592724609375,-0.5136613249778748,-2.4834725856781006,-0.2526691257953644
1716758427305927400,7.945927490234375,-0.3866013288497925,-2.571437358856201,-0.2673299014568329
1716758427315927600,7.955927490234375,-0.2039526402950287,-2.7369816303253174,-0.23984096944332123
1716758427325928000,7.965927978515625,-0.04879286140203476,-2.8096747398376465,-0.2215150147676468
1716758427335927800,7.975927734375,0.06849326193332672,-2.814561605453491,-0.22456933557987213
1716758427345928000,7.985927978515625,0.13935363292694092,-2.8652634620666504,-0.17692184448242188
1716758427355927800,7.995927734375,0.18150334060192108,-2.9471194744110107,-0.04680754989385605
1716758427365928000,8.005927978515626,0.16195565462112427,-2.9110782146453857,0.1584431678056717
1716758427375927300,8.01592724609375,0.0697149932384491,-2.774244546890259,0.2738966941833496
1716758427385927400,8.025927490234375,-0.029856039211153984,-2.6001479625701904,0.35269832611083984
1716758427395927300,8.03592724609375,-0.0823904499411583,-2.4388794898986816,0.3496440052986145
1716758427405927400,8.045927490234375,-0.04085161164402962,-2.2983803749084473,0.32276591658592224
1716758427415927300,8.05592724609375,0.044058654457330704,-2.1737639904022217,0.2653445899486542
1716758427425927400,8.065927490234374,0.10025826096534729,-2.107179641723633,0.1877647042274475
1716758427435927800,8.075927734375,0.10147999227046967,-2.043649673461914,0.1370628923177719
1716758427445928000,8.085927978515626,0.058108557015657425,-1.9141463041305542,0.1376737505197525
1716758427455927800,8.095927734375,-0.03413209691643715,-1.7956384420394897,0.152334526181221
1716758427465928000,8.105927978515625,-0.15569427609443665,-1.7223345041275024,0.1786017268896103
1716758427475927300,8.11592724609375,-0.26076310873031616,-1.727832317352295,0.21036672592163086
1716758427485927000,8.125927001953125,-0.2937498390674591,-1.871996521949768,0.23663392663002014
1716758427495927000,8.135927001953124,-0.28153252601623535,-2.0497584342956543,0.22624921798706055
1716758427505927000,8.145927001953124,-0.2387719452381134,-2.1426098346710205,0.18409951031208038
1716758427515927000,8.155927001953126,-0.1935679316520691,-2.135279417037964,0.1786017268896103
1716758427525927000,8.165927001953126,-0.13431400060653687,-2.0137171745300293,0.16943874955177307
1716758427535927000,8.175927001953125,-0.05367978289723396,-1.9147571325302124,0.17554740607738495
1716758427545927000,8.185927001953125,0.022067507728934288,-1.9135353565216064,0.21219931542873383
1716758427555927000,8.195927001953125,0.05016730725765228,-1.920865774154663,0.24701863527297974
1716758427565926400,8.205926513671875,0.03000875562429428,-1.8903224468231201,0.23663392663002014
1716758427575927000,8.215927001953125,0.00618501054123044,-1.8567248582839966,0.21525363624095917
1716758427585927000,8.225927001953124,0.0006872233934700489,-1.7840319871902466,0.18409951031208038
1716758427595927300,8.23592724609375,0.0214566420763731,-1.4382822513580322,0.13461942970752716
1716758427605927400,8.245927490234376,0.013515393249690533,-1.1664471626281738,0.11934779584407806
1716758427615927300,8.25592724609375,-0.011530081741511822,-0.903164267539978,0.12606731057167053
1716758427625927000,8.265927001953125,-0.02863430790603161,-0.7302893996238708,0.16149750351905823
1716758427635926800,8.2759267578125,-0.06467536091804504,-0.5922338366508484,0.1779908537864685
1716758427645927000,8.285927001953125,-0.11354457587003708,-0.408363401889801,0.1682170182466507
1716758427655927300,8.29592724609375,-0.16730071604251862,-0.15851953625679016,0.13339769840240479
1716758427665927400,8.305927490234374,-0.22044599056243896,0.15485434234142303,0.06803511828184128
1716758427675927300,8.31592724609375,-0.19723311066627502,0.532369077205658,-0.026648996397852898
1716758427685927700,8.325927734375,-0.07872525602579117,0.9648616313934326,-0.13721559941768646
1716758427695927800,8.335927734375,0.05871942266821861,1.3839151859283447,-0.2557234764099121
1716758427705927700,8.345927734375,0.14851661026477814,1.7620408535003662,-0.3479641079902649
1716758427715927800,8.355927734375,0.18761198222637177,2.154827117919922,-0.3669009506702423
1716758427725927700,8.365927734375,0.16317738592624664,2.567772150039673,-0.3430771827697754
1716758427735927300,8.37592724609375,0.11186470091342926,2.9129109382629395,-0.28504499793052673
1716758427745927400,8.385927490234375,0.04711298272013664,3.084563970565796,-0.15248723328113556
1716758427755927300,8.39592724609375,-0.012751812115311623,3.0839531421661377,0.03627012297511101
1716758427765927400,8.405927490234374,-0.02496911771595478,3.0699033737182617,0.18654297292232513
1716758427775927300,8.41592724609375,-0.0518471859395504,3.213456630706787,0.3105486333370209
1716758427785927400,8.425927490234375,-0.08116871863603592,3.4626896381378174,0.38812851905822754
1716758427795927300,8.43592724609375,-0.10071640461683273,3.810271978378296,0.3948480188846588
1716758427805927400,8.445927490234375,-0.12209668755531311,4.170682430267334,0.32093334197998047
1716758427815927300,8.45592724609375,-0.10804679244756699,4.442517280578613,0.18654297292232513
1716758427825927700,8.465927734375,0.06177374720573425,4.564079761505127,-0.09323330968618393
1716758427835927800,8.475927734375,0.2254856377840042,4.429689407348633,-0.2771037518978119
1716758427845927700,8.485927734375,0.3476586937904358,4.206723690032959,-0.42615485191345215
1716758427855927800,8.495927734375,0.4020256996154785,3.9495491981506348,-0.5245041847229004
1716758427865927700,8.505927734375,0.36964982748031616,3.662442684173584,-0.5617669224739075
1716758427875927300,8.51592724609375,0.26458099484443665,3.3563990592956543,-0.5678756237030029
1716758427885927400,8.525927490234375,0.1399645060300827,3.0772337913513184,-0.5611560940742493
1716758427895927300,8.53592724609375,0.058108557015657425,2.7980682849884033,-0.5238932967185974
1716758427905927400,8.545927490234375,0.06299547851085663,2.531730890274048,-0.45058947801589966
1716758427915927300,8.55592724609375,0.09414960443973541,2.379014730453491,-0.43104177713394165
1716758427925927400,8.565927490234374,0.10881037265062332,2.3289237022399902,-0.4267657399177551
1716758427935927300,8.57592724609375,0.0898735523223877,2.3160955905914307,-0.40049853920936584
1716758427945927400,8.585927490234376,0.0342848114669323,2.330756425857544,-0.35957056283950806
1716758427955926800,8.5959267578125,-0.06101016700267792,2.430938243865967,-0.3058144152164459
1716758427965927000,8.605927001953125,-0.1526399552822113,2.5341744422912598,-0.23495404422283173
1716758427975926800,8.6159267578125,-0.23021984100341797,2.6227500438690186,-0.1598176211118698
1716758427985926400,8.625926513671875,-0.27114781737327576,2.7308731079101562,-0.07796167582273483
1716758427995926500,8.635926513671874,-0.25709789991378784,2.8292224407196045,-0.021151209250092506
1716758428005926400,8.645926513671874,-0.21739166975021362,2.8793132305145264,-0.015653422102332115
1716758428015926500,8.655926513671876,-0.17951802909374237,2.8634307384490967,-0.013820826075971127
1716758428025926400,8.665926513671875,-0.13064880669116974,2.8231136798858643,0.022220224142074585
1716758428035926500,8.675926513671875,-0.10621419548988342,2.774855375289917,0.0668133869767189
1716758428045927000,8.685927001953125,-0.08788824081420898,2.719266653060913,0.09796751290559769
1716758428055926800,8.6959267578125,-0.09582948684692383,2.606867551803589,0.14622586965560913
1716758428065927000,8.705927001953125,-0.1526399552822113,2.51829195022583,0.15355625748634338
1716758428075927300,8.71592724609375,-0.21983513236045837,2.4022276401519775,0.1431715488433838
1716758428085927400,8.725927490234374,-0.2790890634059906,2.283719778060913,0.12362385541200638
1716758428095927300,8.73592724609375,-0.35300374031066895,2.2464568614959717,0.04115704447031021
1716758428105927400,8.745927490234376,-0.4067598879337311,2.2153027057647705,-0.06330090761184692
1716758428115927300,8.75592724609375,-0.3896556794643402,2.0809123516082764,-0.0999528244137764
1716758428125927000,8.765927001953125,-0.34261903166770935,1.8591684103012085,-0.10667234659194946
1716758428135926800,8.7759267578125,-0.2943606972694397,1.6221526861190796,-0.1256091594696045
1716758428145927000,8.785927001953125,-0.18501581251621246,1.454164743423462,-0.18913915753364563
1716758428155926800,8.7959267578125,-0.02496911771595478,1.3802499771118164,-0.2911536395549774
1716758428165927000,8.805927001953124,0.1509600728750229,1.3087787628173828,-0.38950294256210327
1716758428175926800,8.8159267578125,0.3323870599269867,1.2043207883834839,-0.44997861981391907
1716758428185927400,8.825927490234376,0.49548807740211487,1.1664471626281738,-0.47135889530181885
1716758428195927800,8.835927734375,0.6372088193893433,1.2049317359924316,-0.4738023579120636
1716758428205928000,8.845927978515626,0.7306711673736572,1.2635747194290161,-0.453643798828125
1716758428215927800,8.855927734375,0.7844273447990417,1.271515965461731,-0.41088324785232544
1716758428225928000,8.865927978515625,0.7899250984191895,1.2055425643920898,-0.32536208629608154
1716758428235927800,8.875927734375,0.701349675655365,1.197601318359375,-0.20746511220932007
1716758428245927700,8.885927734375,0.5455790162086487,1.3448197841644287,-0.0742964819073677
1716758428255927800,8.895927734375,0.3934735655784607,1.5512923002243042,0.05032002553343773
1716758428265927700,8.905927734375,0.2419789880514145,1.740660548210144,0.17127133905887604
1716758428275927800,8.915927734375,0.11736248433589935,1.8591684103012085,0.3038291037082672
1716758428285927700,8.925927734375,-0.06834054738283157,2.1810944080352783,0.4357759952545166
1716758428295927800,8.935927734375,-0.4806745946407318,2.4999659061431885,0.5304601192474365
1716758428305927700,8.945927734375,-0.6706537008285522,2.746755599975586,0.6343072056770325
1716758428315927800,8.955927734375,-0.8441393971443176,2.860987424850464,0.7570911049842834
1716758428325928200,8.96592822265625,-1.020068645477295,2.9379563331604004,0.9091965556144714
1716758428335928300,8.97592822265625,-1.2234867811203003,3.050966501235962,1.0283153057098389
1716758428345927700,8.985927734375,-1.4452308416366577,3.0949487686157227,1.1394927501678467
1716758428355927800,8.995927734375,-1.5863406658172607,2.908634901046753,1.3013720512390137
1716758428365927700,9.005927734375,-1.63704252243042,2.774244546890259,1.3215305805206299
1716758428375927300,9.01592724609375,-1.5857298374176025,2.738814353942871,1.249448537826538
1716758428385927400,9.025927490234375,-1.4207961559295654,2.654515027999878,1.1352167129516602
1716758428395927300,9.03592724609375,-1.1477394104003906,2.565939426422119,0.923246443271637
1716758428405927400,9.045927490234375,-0.7995462417602539,2.476142168045044,0.6233116388320923
1716758428415927300,9.05592724609375,-0.44890961050987244,2.2849414348602295,0.2946661114692688
1716758428425927400,9.065927490234374,-0.13492485880851746,2.0173823833465576,-0.04130976274609566
1716758428435927300,9.07592724609375,0.12652546167373657,1.729664921760559,-0.3107013404369354
1716758428445927400,9.085927490234376,0.2315942794084549,1.4370604753494263,-0.4432590901851654
1716758428455927300,9.09592724609375,0.10881037265062332,1.2556334733963013,-0.47135889530181885
1716758428465927400,9.105927490234375,-0.13003793358802795,1.2965614795684814,-0.4738023579120636
1716758428475927300,9.11592724609375,-0.39820778369903564,1.4731014966964722,-0.48235446214675903
1716758428485927000,9.125927001953125,-0.572915256023407,1.5665639638900757,-0.48663052916526794
1716758428495926500,9.135926513671874,-0.6376669406890869,1.5195273160934448,-0.47563496232032776
1716758428505926400,9.145926513671874,-0.6547712087631226,1.5195273160934448,-0.45547640323638916
1716758428515926500,9.155926513671876,-0.6358343362808228,1.6746870279312134,-0.4237114191055298
1716758428525926400,9.165926513671875,-0.5606979131698608,1.977676272392273,-0.3363576829433441
1716758428535926500,9.175926513671875,-0.5216025710105896,2.124283790588379,-0.2856558561325073
1716758428545926400,9.185926513671875,-0.4953353703022003,2.2537872791290283,-0.25877779722213745
1716758428555926500,9.195926513671875,-0.48861584067344666,2.432159900665283,-0.230677992105484
1716758428565926400,9.205926513671875,-0.5081635117530823,2.6429085731506348,-0.21723894774913788
1716758428575926800,9.2159267578125,-0.5087743997573853,2.761416435241699,-0.23495404422283173
1716758428585927000,9.225927001953124,-0.47334420680999756,2.796846628189087,-0.28504499793052673
1716758428595926800,9.2359267578125,-0.4006512463092804,2.839607000350952,-0.36567920446395874
1716758428605927000,9.245927001953126,-0.26565003395080566,2.8738155364990234,-0.4676937162876129
1716758428615926800,9.2559267578125,-0.06772968173027039,2.7852401733398438,-0.5715407729148865
1716758428625926400,9.265926513671875,0.13629931211471558,2.5860979557037354,-0.6417902708053589
1716758428635926500,9.275926513671875,0.30428725481033325,2.4211645126342773,-0.6839399933815002
1716758428645926400,9.285926513671875,0.4172973334789276,2.2623393535614014,-0.7291440367698669
1716758428655926500,9.295926513671875,0.45211663842201233,1.994780421257019,-0.7847327589988708
1716758428665926400,9.305926513671874,0.4185190498828888,1.6013832092285156,-0.8568148612976074
1716758428675926500,9.315926513671876,0.28840476274490356,1.2403619289398193,-0.9343947768211365
1716758428685927000,9.325927001953126,0.21326832473278046,0.8756753206253052,-0.9991464614868164
1716758428695926800,9.3359267578125,0.2303725630044937,0.6294966340065002,-1.03274405002594
1716758428705927000,9.345927001953125,0.36048686504364014,0.5739079117774963,-1.0015898942947388
1716758428715926800,9.3559267578125,0.5144249200820923,0.7162395119667053,-1.053513526916504
1716758428725927000,9.365927001953125,0.529085636138916,0.8732318878173828,-1.0761154890060425
1716758428735926800,9.3759267578125,0.43012550473213196,1.0876455307006836,-1.07061767578125
1716758428745927000,9.385927001953124,0.2981785833835602,1.0852020978927612,-1.0351874828338623
1716758428755926800,9.3959267578125,0.2053270787000656,0.6398813724517822,-1.0009790658950806
1716758428765927000,9.405927001953126,0.1650099754333496,0.14019356667995453,-0.9942595362663269
1716758428775926800,9.4159267578125,0.1301906555891037,-0.2684752643108368,-0.9838748574256897
1716758428785927000,9.425927001953125,0.08926268666982651,-0.4761694669723511,-0.9325621724128723
1716758428795926800,9.4359267578125,-0.002367102773860097,-0.58062744140625,-0.8268824815750122
1716758428805927000,9.445927001953125,-0.10438159853219986,-0.6276640295982361,-0.7181484699249268
1716758428815926800,9.4559267578125,-0.20212003588676453,-0.6661485433578491,-0.566653847694397
1716758428825927400,9.465927490234375,-0.20700696110725403,-0.7834346890449524,-0.3888920843601227
1716758428835927300,9.47592724609375,-0.1679115891456604,-0.9373727440834045,-0.23251058161258698
1716758428845927400,9.485927490234374,-0.17218764126300812,-1.063821792602539,-0.14149166643619537
1716758428855927300,9.49592724609375,-0.23021984100341797,-1.1279627084732056,-0.08223773539066315
1716758428865927400,9.505927490234376,-0.41836634278297424,-1.3625348806381226,0.04115704447031021
1716758428875926800,9.5159267578125,-0.6688210964202881,-1.5940529108047485,0.21952970325946808
1716758428885927000,9.525927001953125,-0.905225932598114,-1.6514742374420166,0.37835466861724854
1716758428895926800,9.5359267578125,-1.1000919342041016,-1.635591745376587,0.5017494559288025
1716758428905927000,9.545927001953125,-1.1886674165725708,-1.6215417385101318,0.5438991189002991
1716758428915926800,9.5559267578125,-1.1911108493804932,-1.5671747922897339,0.5591707825660706
1716758428925927000,9.565927001953124,-1.2124911546707153,-1.550681471824646,0.5823836326599121
1716758428935927300,9.57592724609375,-1.246699571609497,-1.624596118927002,0.5976552963256836
1716758428945927400,9.585927490234376,-1.2638038396835327,-1.6783522367477417,0.6220899224281311
1716758428955927300,9.59592724609375,-1.27724289894104,-1.7137824296951294,0.6666830778121948
1716758428965927400,9.605927490234375,-1.2833515405654907,-1.8316794633865356,0.7222718000411987
1716758428975927300,9.61592724609375,-1.2631930112838745,-1.969735026359558,0.7955756187438965
1716758428985927000,9.625927001953125,-1.170952320098877,-2.0057759284973145,0.9678395986557007
1716758428995926800,9.6359267578125,-1.020068645477295,-1.8762725591659546,1.0460304021835327
1716758429005927000,9.645927001953124,-0.8148179054260254,-1.8072447776794434,1.075962781906128
1716758429015926800,9.6559267578125,-0.5686391592025757,-1.8475619554519653,1.0643563270568848
1716758429025927000,9.665927001953126,-0.3340669274330139,-1.9422460794448853,1.036867380142212
1716758429035926800,9.6759267578125,-0.12026409804821014,-2.035708427429199,1.0283153057098389
1716758429045927000,9.685927001953125,0.03672827407717705,-2.0094411373138428,1.027093529701233
1716758429055926800,9.6959267578125,0.10086912661790848,-1.919033169746399,1.0319805145263672
1716758429065927000,9.705927001953125,0.1198059469461441,-1.9300287961959839,1.0264827013015747
1716758429075927300,9.71592724609375,0.11430815607309341,-1.977676272392273,1.0154870748519897
1716758429085927400,9.725927490234374,0.12224940955638885,-1.9556851387023926,0.952567994594574
1716758429095927300,9.73592724609375,0.19799669086933136,-1.9532415866851807,0.8511643409729004
1716758429105927400,9.745927490234376,0.32994359731674194,-2.040595293045044,0.7326564788818359
1716758429115927300,9.75592724609375,0.47105345129966736,-2.188424825668335,0.6037639379501343
1716758429125927000,9.765927001953125,0.5657375454902649,-2.2818870544433594,0.47853657603263855
1716758429135926800,9.7759267578125,0.6317110061645508,-2.308154344558716,0.39301541447639465
1716758429145927000,9.785927001953125,0.7031822800636292,-2.4052820205688477,0.3050508201122284
1716758429155926800,9.7959267578125,0.8064184784889221,-2.509739875793457,0.17982345819473267
1716758429165927000,9.805927001953124,0.8907178640365601,-2.478585720062256,0.0668133869767189
1716758429175926800,9.8159267578125,0.9218720197677612,-2.2262983322143555,0.016722436994314194
1716758429185927000,9.825927001953126,0.9456957578659058,-1.938580870628357,-0.0009926559869199991
1716758429195927000,9.835927001953126,0.9511935710906982,-1.7534886598587036,0.010002918541431427
1716758429205927000,9.845927001953125,0.9053786396980286,-1.7382169961929321,0.03443752974271774
1716758429215927000,9.855927001953125,0.7801512479782104,-1.7986927032470703,0.10468703508377075
1716758429225927000,9.865927001953125,0.6463717818260193,-1.9007072448730469,0.1877647042274475
1716758429235926500,9.875926513671875,0.5028184652328491,-2.015549898147583,0.30688342452049255
1716758429245926400,9.885926513671874,0.35498905181884766,-2.049147367477417,0.4302782118320465
1716758429255926500,9.895926513671874,0.22792910039424896,-2.0057759284973145,0.5463426113128662
1716758429265926400,9.905926513671876,0.12835806608200073,-1.8738291263580322,0.6068182587623596
1716758429275926500,9.915926513671875,0.07338018715381622,-1.7052303552627563,0.5909357666969299
1716758429285926400,9.925926513671875,0.05749769136309624,-1.6252069473266602,0.515188455581665
1716758429295926500,9.935926513671875,0.052610769867897034,-1.6227635145187378,0.4150065779685974
1716758429305926400,9.945926513671875,0.05627596005797386,-1.6252069473266602,0.3441462218761444
1716758429315926500,9.955926513671875,0.04589125141501427,-1.596496343612671,0.33315062522888184
1716758429325927000,9.965927001953125,0.004352414980530739,-1.5048664808273315,0.3551417887210846
1716758429335927000,9.975927001953124,-0.02252565510571003,-1.387580394744873,0.3594178259372711
1716758429345927000,9.985927001953126,-0.05367978289723396,-1.443169116973877,0.30749428272247314
1716758429355927000,9.995927001953126,-0.07750352472066879,-1.5543465614318848,0.1779908537864685
1716758429365927400,10.005927490234376,-0.0720057412981987,-1.529911994934082,0.005115996580570936
1716758429375927000,10.015927001953125,-0.03352123126387596,-1.3771957159042358,-0.17631098628044128
1716758429385927000,10.025927001953125,0.06299547851085663,-1.1664471626281738,-0.35407277941703796
1716758429395927000,10.035927001953125,0.21449005603790283,-0.9385944604873657,-0.5037347674369812
1716758429405927000,10.045927001953125,0.3885866403579712,-0.6948592066764832,-0.615523099899292
1716758429415927000,10.055927001953124,0.5315291285514832,-0.5054910182952881,-0.6876052021980286
1716758429425927000,10.065927001953124,0.6170502305030823,-0.36010506749153137,-0.7548003792762756
1716758429435927300,10.07592724609375,0.6408740282058716,-0.18295414745807648,-0.8403214812278748
1716758429445927400,10.085927490234376,0.6133850812911987,0.1463022232055664,-0.9301186800003052
1716758429455927300,10.09592724609375,0.5639050006866455,0.36071592569351196,-0.9117927551269531
1716758429465927400,10.105927490234375,0.510759711265564,0.5488623976707458,-0.8433758020401001
1716758429475927300,10.11592724609375,0.4625013470649719,0.6911939978599548,-0.7376961708068848
1716758429485927400,10.125927490234375,0.3922518491744995,0.7797694802284241,-0.595975399017334
1716758429495927300,10.13592724609375,0.29390254616737366,0.7938193678855896,-0.46525025367736816
1716758429505927400,10.145927490234374,0.1906663179397583,0.7620543837547302,-0.36934441328048706
1716758429515927300,10.15592724609375,0.11064296960830688,0.712574303150177,-0.28871017694473267
1716758429525927400,10.165927490234376,0.05383250117301941,0.644768238067627,-0.21357376873493195
1716758429535927300,10.17592724609375,0.01840231567621231,0.49816060066223145,-0.13416127860546112
1716758429545927700,10.185927734375,-0.004810563754290342,0.25503623485565186,-0.048029281198978424
1716758429555927800,10.195927734375,-0.030466904863715172,-0.018020525574684143,0.03260493278503418
1716758429565927700,10.205927734375,-0.05123632401227951,-0.24342979490756989,0.082085020840168
1716758429575927800,10.215927734375,-0.11476630717515945,-0.3686571717262268,0.11323914676904678
1716758429585927700,10.225927734375,-0.19478964805603027,-0.43707409501075745,0.14011721312999725
1716758429595927800,10.235927734375,-0.20578522980213165,-0.5665774941444397,0.16455182433128357
1716758429605927700,10.245927734375,-0.1526399552822113,-0.7107416987419128,0.15722143650054932
1716758429615927800,10.255927734375,-0.0671188160777092,-0.6704245805740356,0.0771980956196785
1716758429625927400,10.265927490234375,0.06727153807878494,-0.3546072840690613,-0.023594669997692108
1716758429635927300,10.27592724609375,0.27435484528541565,-0.07299839705228806,-0.0999528244137764
1716758429645927400,10.285927490234375,0.4826599061489105,-0.04489859566092491,-0.2007455974817276
1716758429655927300,10.29592724609375,0.6439283490180969,-0.23060162365436554,-0.3381902575492859
1716758429665927000,10.305927001953124,0.7434993386268616,-0.4346306324005127,-0.42004621028900146
1716758429675926800,10.3159267578125,0.8015315532684326,-0.46273043751716614,-0.44570255279541016
1716758429685927400,10.325927490234376,0.7215082049369812,-0.34177911281585693,-0.41027235984802246
1716758429695927300,10.33592724609375,0.5956699848175049,-0.1872301995754242,-0.3620140254497528
1716758429705927400,10.345927490234375,0.46127963066101074,-0.043676864355802536,-0.32536208629608154
1716758429715927300,10.35592724609375,0.3317761719226837,0.1408044397830963,-0.2978731691837311
1716758429725927400,10.365927490234375,0.20715968310832977,0.3491095006465912,-0.263053834438324
1716758429735926800,10.3759267578125,0.08681922405958176,0.5067127346992493,-0.1958586722612381
1716758429745927000,10.385927001953124,-0.026190847158432007,0.6185010671615601,-0.09140071272850037
1716758429755926800,10.3959267578125,-0.10621419548988342,0.6692028641700745,0.021609358489513397
1716758429765927000,10.405927001953126,-0.16424639523029327,0.6710354685783386,0.11507174372673035
1716758429775926800,10.4159267578125,-0.21250474452972412,0.693637490272522,0.1975385546684265
1716758429785927000,10.425927001953125,-0.2528218626976013,0.7290676832199097,0.2598468065261841
1716758429795926800,10.4359267578125,-0.23144157230854034,0.721737265586853,0.2726749777793884
1716758429805927000,10.445927001953125,-0.13187053799629211,0.6331618428230286,0.23052527010440826
1716758429815927300,10.45592724609375,0.0006872233934700489,0.5354233980178833,0.15050192177295685
1716758429825927700,10.465927734375,0.15645785629749298,0.470060795545578,0.060093868523836136
1716758429835927800,10.475927734375,0.29329168796539307,0.41752639412879944,0.0014508049935102463
1716758429845927400,10.485927490234374,0.3922518491744995,0.4358523488044739,0.002672535367310047
1716758429855927300,10.49592724609375,0.4545601010322571,0.5213735103607178,0.04237877577543259
1716758429865927400,10.505927490234376,0.48571422696113586,0.6313292384147644,0.11385001242160797
1716758429875927300,10.51592724609375,0.49609893560409546,0.7400632500648499,0.1724930703639984
1716758429885927400,10.525927490234375,0.4942663311958313,0.8494081497192383,0.22258402407169342
1716758429895927300,10.53592724609375,0.5052618980407715,0.9532552361488342,0.3093268871307373
1716758429905927700,10.545927734375,0.510759711265564,1.036943793296814,0.4669301211833954
1716758429915927800,10.555927734375,0.48143815994262695,1.1297953128814697,0.525573194026947
1716758429925927700,10.565927734375,0.4545601010322571,1.1829406023025513,0.524962306022644
1716758429935927800,10.575927734375,0.4722751975059509,1.226922869682312,0.4455498456954956
1716758429945927700,10.585927734375,0.4979315400123596,1.2599095106124878,0.34292447566986084
1716758429955927800,10.595927734375,0.538859486579895,1.2244794368743896,0.27206411957740784
1716758429965927700,10.605927734375,0.5663484334945679,1.1365147829055786,0.21281017363071442
1716758429975927800,10.615927734375,0.5718462467193604,1.0332785844802856,0.1731039434671402
1716758429985927400,10.625927490234375,0.5730679631233215,0.988074541091919,0.15050192177295685
1716758429995927300,10.63592724609375,0.5559637546539307,1.0027352571487427,0.1272890418767929
1716758430005927400,10.645927490234374,0.529085636138916,1.0265589952468872,0.13095423579216003
1716758430015927300,10.65592724609375,0.48143815994262695,1.0528262853622437,0.14928019046783447
1716758430025927400,10.665927490234376,0.4246276915073395,1.1078041791915894,0.14989106357097626
1716758430035927300,10.67592724609375,0.3720932900905609,1.1542298793792725,0.122402124106884
1716758430045927400,10.685927490234375,0.3384957015514374,1.1365147829055786,0.06253732740879059
1716758430055927300,10.69592724609375,0.3226132094860077,1.0693196058273315,-0.03825543448328972
1716758430065927400,10.705927490234375,0.296956866979599,0.9605855941772461,-0.13782647252082825
1716758430075927800,10.715927734375,0.2413681298494339,0.8304712772369385,-0.20318904519081116
1716758430085927700,10.725927734375,0.16195565462112427,0.7235698699951172,-0.22212587296962738
1716758430095927800,10.735927734375,0.06360634416341782,0.6624833345413208,-0.21174116432666779
1716758430105927700,10.745927734375,-0.038408152759075165,0.6459900140762329,-0.19463694095611572
1716758430115927300,10.75592724609375,-0.13492485880851746,0.6771441102027893,-0.1964695304632187
1716758430125927000,10.765927001953125,-0.2027309089899063,0.741895854473114,-0.20685423910617828
1716758430135926800,10.7759267578125,-0.21983513236045837,0.7877107262611389,-0.2257910668849945
1716758430145927000,10.785927001953125,-0.20517437160015106,0.7925976514816284,-0.22945626080036163
1716758430155926800,10.7959267578125,-0.18196149170398712,0.7681630253791809,-0.19830213487148285
1716758430165927000,10.805927001953124,-0.15874861180782318,0.7241807579994202,-0.1506546437740326
1716758430175926800,10.8159267578125,-0.1471421718597412,0.6966918110847473,-0.09017898142337799
1716758430185927400,10.825927490234376,-0.14469870924949646,0.6356052756309509,-0.02298380434513092
1716758430195927300,10.83592724609375,-0.13920091092586517,0.522595226764679,0.036880988627672195
1716758430205927200,10.84592724609375,-0.12026409804821014,0.4004221558570862,0.07536549866199493
1716758430215927300,10.85592724609375,-0.09460775554180145,0.27458393573760986,0.10346530377864838
1716758430225927200,10.86592724609375,-0.061621032655239105,0.1371392458677292,0.11690433323383331
1716758430235927300,10.87592724609375,-0.03779728710651398,0.019853120669722557,0.10590875893831253
1716758430245927200,10.88592724609375,-0.03718642145395279,-0.01863138936460018,0.0869719386100769
1716758430255927300,10.89592724609375,-0.03962988406419754,-0.0027488935738801956,0.05581781268119812
1716758430265927700,10.905927734375,-0.06589708477258682,0.10659598559141159,0.021609358489513397
1716758430275927800,10.915927734375,-0.09766208380460739,0.1915062516927719,0.012446379289031029
1716758430285927700,10.925927734375,-0.12209668755531311,0.1518000066280365,0.016722436994314194
1716758430295927800,10.935927734375,-0.13187053799629211,0.01191187184303999,0.0069485921412706375
1716758430305927700,10.945927734375,-0.1227075532078743,-0.16401731967926025,-0.016264287754893303
1716758430315927800,10.955927734375,-0.11659890413284302,-0.31612277030944824,-0.07551821321249008
1716758430325928200,10.96592822265625,-0.1324813961982727,-0.40225476026535034,-0.14332425594329834
1716758430335928300,10.97592822265625,-0.15019649267196655,-0.4755585789680481,-0.17447838187217712
1716758430345928200,10.98592822265625,-0.15019649267196655,-0.5867360830307007,-0.17203491926193237
1716758430355928300,10.99592822265625,-0.15080735087394714,-0.7101308703422546,-0.15370896458625793
1716758430365928200,11.00592822265625,-0.13920091092586517,-0.874453604221344,-0.1359938681125641
1716758430375927800,11.015927734375,-0.12026409804821014,-0.9556986689567566,-0.13171781599521637
1716758430385927700,11.025927734375,-0.09888381510972977,-1.045495867729187,-0.13232868909835815
1716758430395927800,11.035927734375,-0.0921642929315567,-1.1762210130691528,-0.13843733072280884
1716758430405927700,11.045927734375,-0.09644035249948502,-1.3154983520507812,-0.13232868909835815
1716758430415927800,11.055927734375,-0.08849909901618958,-1.4340062141418457,-0.11094839870929718
1716758430425927700,11.065927734375,-0.07383833825588226,-1.576948642730713,-0.08529205620288849
1716758430435928300,11.07592822265625,-0.06467536091804504,-1.7033977508544922,-0.05169447138905525
1716758430445928200,11.08592822265625,-0.08116871863603592,-1.7614299058914185,0.005726861767470837
1716758430455928300,11.09592822265625,-0.1074359267950058,-1.7889188528060913,0.07903069257736206
1716758430465928200,11.10592822265625,-0.09460775554180145,-1.8781051635742188,0.15355625748634338
1716758430475928300,11.11592822265625,-0.06834054738283157,-1.9685132503509521,0.20670153200626373
1716758430485927700,11.125927734375,-0.07811439037322998,-2.0167715549468994,0.24213171005249023
1716758430495927800,11.135927734375,-0.10987938940525055,-2.068695068359375,0.23113614320755005
1716758430505927400,11.145927490234374,-0.1477530300617218,-2.096184015274048,0.1877647042274475
1716758430515927300,11.15592724609375,-0.1624137908220291,-2.096794843673706,0.14133894443511963
1716758430525927400,11.165927490234376,-0.1483639031648636,-2.087631940841675,0.082085020840168
1716758430535927300,11.17592724609375,-0.15935947000980377,-2.0082194805145264,0.021609358489513397
1716758430545927400,11.185927490234375,-0.18196149170398712,-1.919033169746399,0.005115996580570936
1716758430555927300,11.19592724609375,-0.1636355221271515,-2.0063869953155518,0.017333300784230232
1716758430565927000,11.205927001953125,-0.11598803848028183,-2.205528974533081,0.010002918541431427
1716758430575927300,11.21592724609375,-0.0671188160777092,-2.379014730453491,-0.012599095702171326
1716758430585927400,11.225927490234374,-0.004199698567390442,-2.5335636138916016,-0.06757696717977524
1716758430595927300,11.23592724609375,0.11186470091342926,-2.645962715148926,-0.15309810638427734
1716758430605927200,11.24592724609375,0.15829046070575714,-2.61297607421875,-0.1958586722612381
1716758430615927300,11.25592724609375,0.1552361249923706,-2.5531113147735596,-0.190360888838768
1716758430625927000,11.265927001953125,0.13935363292694092,-2.5115723609924316,-0.13782647252082825
1716758430635926800,11.2759267578125,0.08620835840702057,-2.507296323776245,-0.053527068346738815
1716758430645927000,11.285927001953125,-0.02802344225347042,-2.5366179943084717,0.05887213721871376
1716758430655926800,11.2959267578125,-0.19112446904182434,-2.5305092334747314,0.20975585281848907
1716758430665927000,11.305927001953124,-0.3090214431285858,-2.540283203125,0.3502548635005951
1716758430675926800,11.3159267578125,-0.37743836641311646,-2.6251933574676514,0.4669301211833954
1716758430685927000,11.325927001953126,-0.4104250967502594,-2.7504208087921143,0.5365687608718872
1716758430695926800,11.3359267578125,-0.41225767135620117,-2.8206703662872314,0.5958226919174194
1716758430705927000,11.345927001953125,-0.40859249234199524,-2.7846291065216064,0.6306419968605042
1716758430715926800,11.3559267578125,-0.41836634278297424,-2.7369816303253174,0.6361398100852966
1716758430725927000,11.365927001953125,-0.42264237999916077,-2.7204883098602295,0.6104834675788879
1716758430735926300,11.37592626953125,-0.37743836641311646,-2.772411823272705,0.5438991189002991
1716758430745926400,11.385926513671874,-0.2858085632324219,-2.8176159858703613,0.42783474922180176
1716758430755926300,11.39592626953125,-0.13859005272388458,-2.78035306930542,0.2726749777793884
1716758430765926400,11.405926513671876,0.0031306843739002943,-2.7821857929229736,0.13339769840240479
1716758430775926300,11.41592626953125,0.11308643221855164,-2.8151724338531494,0.019776761531829834
1716758430785926400,11.425926513671875,0.14851661026477814,-2.7504208087921143,-0.08223773539066315
1716758430795926300,11.43592626953125,0.1253037303686142,-2.724764347076416,-0.1610393524169922
1716758430805926400,11.445926513671875,0.08620835840702057,-2.80539870262146,-0.22212587296962738
1716758430815926300,11.45592626953125,0.034895677119493484,-3.054020881652832,-0.2312888503074646
1716758430825927000,11.465927001953125,-0.128205344080925,-3.4712417125701904,-0.18241962790489197
1716758430835926800,11.4759267578125,-0.25526532530784607,-3.6306777000427246,-0.10728321224451065
1716758430845927000,11.485927001953126,-0.31696268916130066,-3.5408804416656494,-0.027259862050414085
1716758430855926800,11.4959267578125,-0.3603341281414032,-3.2934799194335938,0.08025242388248444
1716758430865927000,11.505927001953125,-0.3749949038028717,-3.065016269683838,0.16699528694152832
1716758430875926300,11.51592626953125,-0.35239288210868835,-2.855489492416382,0.2244166135787964
1716758430885926400,11.525926513671875,-0.3242930769920349,-2.7314839363098145,0.2696206569671631
1716758430895926300,11.53592626953125,-0.32734742760658264,-2.7003297805786133,0.30138564109802246
1716758430905926400,11.545926513671875,-0.4250858426094055,-2.652071475982666,0.30688342452049255
1716758430915926300,11.55592626953125,-0.6083454489707947,-2.6087000370025635,0.30688342452049255
1716758430925926400,11.565926513671876,-0.6816492676734924,-2.2965478897094727,0.2030363380908966
1716758430935926800,11.5759267578125,-0.8508589267730713,-2.4187209606170654,0.2787836194038391
1716758430945927000,11.585927001953126,-0.9516516923904419,-2.4419338703155518,0.28733575344085693
1716758430955926800,11.5959267578125,-1.0408380031585693,-2.2293527126312256,0.29222264885902405
1716758430965927000,11.605927001953125,-1.0640509128570557,-2.107179641723633,0.2683989107608795
1716758430975926800,11.6159267578125,-0.9968557357788086,-2.0399844646453857,0.20059287548065186
1716758430985927000,11.625927001953125,-0.9137780666351318,-1.9935587644577026,0.11079568415880203
1716758430995926800,11.6359267578125,-0.8026005625724792,-2.0369300842285156,0.03321579843759537
1716758431005927000,11.645927001953124,-0.6480516791343689,-1.9440786838531494,-0.07551821321249008
1716758431015926800,11.6559267578125,-0.47884199023246765,-1.6850718259811401,-0.1964695304632187
1716758431025927000,11.665927001953126,-0.36155587434768677,-1.311833143234253,-0.3076470196247101
1716758431035926800,11.6759267578125,-0.2632065713405609,-0.9514226317405701,-0.3766747713088989
1716758431045927000,11.685927001953125,-0.17402023077011108,-0.6374378800392151,-0.391946405172348
1716758431055926800,11.6959267578125,-0.03352123126387596,-0.08032877743244171,-0.4078288972377777
1716758431065927000,11.705927001953125,0.1253037303686142,0.522595226764679,-0.47196975350379944
1716758431075926800,11.7159267578125,0.23220515251159668,1.0809260606765747,-0.5532148480415344
1716758431085927000,11.725927001953124,0.31528282165527344,1.4022411108016968,-0.6240752339363098
1716758431095926800,11.7359267578125,0.3421608805656433,1.5030338764190674,-0.7095963358879089
1716758431105927000,11.745927001953126,0.38919752836227417,1.5928311347961426,-0.7254788279533386
1716758431115926800,11.7559267578125,0.4637230932712555,1.727832317352295,-0.6674466133117676
1716758431125926400,11.765926513671875,0.5229769945144653,1.862222671508789,-0.5495496392250061
1716758431135926300,11.77592626953125,0.5791766047477722,2.0363192558288574,-0.43043091893196106
1716758431145926400,11.785926513671875,0.6365979313850403,2.1529946327209473,-0.31864258646965027
1716758431155926300,11.79592626953125,0.6970735788345337,2.2208006381988525,-0.1811978965997696
1716758431165926400,11.805926513671874,0.7734317779541016,2.2238550186157227,-0.06574437022209167
1716758431175926300,11.81592626953125,0.9243154525756836,2.115731716156006,0.018555032089352608
1716758431185927000,11.825927001953126,1.0110583305358887,1.8573358058929443,0.04726569727063179
1716758431195926800,11.8359267578125,1.127733588218689,1.4517213106155396,0.04237877577543259
1716758431205927000,11.845927001953125,1.3549754619598389,0.9520334601402283,-0.002825251780450344
1716758431215926800,11.8559267578125,1.38612961769104,0.997237503528595,0.11079568415880203
1716758431225927200,11.86592724609375,1.271286964416504,1.3051135540008545,0.28122708201408386
1716758431235926800,11.8759267578125,1.2645673751831055,1.5060882568359375,0.4418846368789673
1716758431245927000,11.885927001953124,1.2914454936981201,1.7302757501602173,0.65874183177948
1716758431255926800,11.8959267578125,1.356808066368103,1.9117027521133423,0.810236394405365
1716758431265927000,11.905927001953126,1.4576008319854736,2.104736089706421,0.8145124316215515
1716758431275926800,11.9159267578125,1.4814245700836182,2.3234260082244873,0.7344890832901001
1716758431285927000,11.925927001953125,1.3769665956497192,2.5830435752868652,0.6734025478363037
1716758431295926800,11.9359267578125,1.3366495370864868,2.6612343788146973,0.5854379534721375
1716758431305927000,11.945927001953125,1.2963323593139648,2.7711901664733887,0.4357759952545166
1716758431315926800,11.9559267578125,1.1906527280807495,2.8011226654052734,0.30566170811653137
1716758431325927200,11.96592724609375,1.003727912902832,2.7320947647094727,0.18715384602546692
1716758431335927800,11.975927734375,0.7691556811332703,2.534785270690918,0.09613491594791412
1716758431345927700,11.985927734375,0.5162574648857117,2.2574524879455566,0.04970915988087654
1716758431355927800,11.995927734375,0.2603049576282501,1.9941695928573608,0.028939740732312202
1716758431365927700,12.005927734375,0.0019089538836851716,1.8219056129455566,-0.0009926559869199991
1716758431375927800,12.015927734375,-0.27786731719970703,1.690569519996643,-0.05474879592657089
1716758431385927700,12.025927734375,-0.5038874745368958,1.5555683374404907,-0.1146135926246643
1716758431395927800,12.035927734375,-0.6602689623832703,1.4889839887619019,-0.18669569492340088
1716758431405928200,12.04592822265625,-0.7060838937759399,1.5451836585998535,-0.2612212598323822
1716758431415928000,12.055927978515625,-0.7011969685554504,1.6924021244049072,-0.3284164369106293
1716758431425928200,12.06592822265625,-0.7024186849594116,1.8078557252883911,-0.36445748805999756
1716758431435928300,12.07592822265625,-0.7195228934288025,1.8793269395828247,-0.34552064538002014
1716758431445928200,12.08592822265625,-0.7329619526863098,1.917811393737793,-0.30398181080818176
1716758431455928300,12.09592822265625,-0.7317401766777039,1.8988746404647827,-0.2722168266773224
1716758431465928200,12.10592822265625,-0.7213554978370667,1.8316794633865356,-0.24228443205356598
1716758431475928300,12.11592822265625,-0.695088267326355,1.757153868675232,-0.19891299307346344
1716758431485927700,12.125927734375,-0.6682102084159851,1.6704109907150269,-0.14454598724842072
1716758431495927800,12.135927734375,-0.6425538659095764,1.606881022453308,-0.06635523587465286
1716758431505927700,12.145927734375,-0.591241180896759,1.5726726055145264,0.022220224142074585
1716758431515927800,12.155927734375,-0.4195880591869354,1.5439618825912476,0.132786825299263
1716758431525927400,12.165927490234376,-0.23632849752902985,1.5616769790649414,0.18471038341522217
1716758431535927300,12.17592724609375,-0.0011453722836449742,1.5940529108047485,0.22014056146144867
1716758431545927400,12.185927490234375,0.24869851768016815,1.588555097579956,0.25251641869544983
1716758431555927300,12.19592724609375,0.4826599061489105,1.560455322265625,0.28244882822036743
1716758431565927400,12.205927490234375,0.681191086769104,1.550681471824646,0.3136029541492462
1716758431575927800,12.215927734375,0.8277987837791443,1.550681471824646,0.36247217655181885
1716758431585927700,12.225927734375,0.8998808860778809,1.5085316896438599,0.41867175698280334
1716758431595927800,12.235927734375,0.8998808860778809,1.4847079515457153,0.4522693455219269
1716758431605927700,12.245927734375,0.853455126285553,1.5134186744689941,0.4760931134223938
1716758431615927800,12.255927734375,0.7483862638473511,1.5042556524276733,0.5170210599899292
1716758431625927400,12.265927490234375,0.6023895144462585,1.4358386993408203,0.544510006904602
1716758431635926800,12.2759267578125,0.4429536461830139,1.3423763513565063,0.545120894908905
1716758431645927000,12.285927001953125,0.2566397488117218,1.2281445264816284,0.5438991189002991
1716758431655926800,12.2959267578125,0.05322163552045822,1.1212431192398071,0.534736156463623
1716758431665927000,12.305927001953124,-0.13064880669116974,1.0320568084716797,0.516410231590271
1716758431675926800,12.3159267578125,-0.2803107798099518,1.0118982791900635,0.4974733889102936
