time,seconds_elapsed,z,y,x
1716551985714078000,0.107077880859375,-0.16004198789596558,-0.44790375232696533,0.2292204350233078
1716551985723744800,0.116744873046875,-0.07391251623630524,-0.6433748602867126,0.3220692276954651
1716551985733411800,0.126411865234375,-0.06841489672660828,-0.9200887084007263,0.462564080953598
1716551985743078700,0.13607861328125,-0.13744063675403595,-1.038593053817749,0.621995210647583
1716551985752745500,0.145745361328125,-0.18691925704479218,-1.000720500946045,0.7148439884185791
1716551985762412300,0.155412353515625,-0.19302773475646973,-0.983005940914154,0.6739172339439392
1716551985772079000,0.1650791015625,-0.16553960740566254,-1.015380859375,0.5468609929084778
1716551985781746000,0.174745849609375,-0.129499614238739,-1.019656777381897,0.3892624080181122
1716551985791412700,0.184412841796875,-0.1044548824429512,-0.9579612016677856,0.2163926362991333
1716551985801079600,0.19407958984375,-0.08490777015686035,-0.7685985565185547,0.024510245770215988
1716551985810746400,0.203746337890625,-0.08246438205242157,-0.5187620520591736,-0.18867544829845428
1716551985820413400,0.213413330078125,-0.1435490995645523,-0.38071054220199585,-0.3591018319129944
1716551985830080300,0.223080322265625,-0.2730487287044525,-0.34283801913261414,-0.4446204602718353
1716551985839747000,0.2327470703125,-0.4428642690181732,-0.3605526089668274,-0.47943875193595886
1716551985849414000,0.242413818359375,-0.5974085927009583,-0.39353835582733154,-0.5087594389915466
1716551985859080700,0.252080810546875,-0.6627692580223083,-0.3972034156322479,-0.5588488578796387
1716551985868747500,0.26174755859375,-0.5234960913658142,-0.2585411071777344,-0.6266529560089111
1716551985878414300,0.271414306640625,-0.2229592502117157,0.014507622458040714,-0.7317186594009399
1716551985888081200,0.2810810546875,0.011606098152697086,0.28877803683280945,-0.8825979232788086
1716551985897748000,0.290748046875,0.12705622613430023,0.4775298535823822,-1.0157626867294312
1716551985907414800,0.300414794921875,0.21196399629116058,0.6400152444839478,-0.9986588954925537
1716551985917081600,0.31008154296875,0.2773246467113495,0.7450809478759766,-0.8209023475646973
1716551985926748700,0.319748779296875,0.288930743932724,0.7737907767295837,-0.5869478583335876
1716551985936415500,0.32941552734375,0.24433889985084534,0.7682931423187256,-0.4073587656021118
1716551985946082300,0.339082275390625,0.17836740612983704,0.7780666947364807,-0.3285594582557678
1716551985955749000,0.3487490234375,0.15332266688346863,0.765849769115448,-0.31267744302749634
1716551985965416000,0.358416015625,0.183865025639534,0.7224795818328857,-0.2912977933883667
1716551985975082800,0.368082763671875,0.26999449729919434,0.6497887969017029,-0.28274592757225037
1716551985984749600,0.37774951171875,0.4306473135948181,0.5044071078300476,-0.24181915819644928
1716551985994416400,0.38741650390625,0.5405998229980469,0.2930539846420288,-0.17706935107707977
1716551986004083200,0.397083251953125,0.53143709897995,0.0981936976313591,-0.10193513333797455
1716551986013750300,0.406750244140625,0.47646087408065796,-0.07956285774707794,0.02145601063966751
1716551986023417000,0.4164169921875,0.3903313875198364,-0.3110739588737488,0.1772984117269516
1716551986033084000,0.426083984375,0.32008397579193115,-0.6048914790153503,0.31412819027900696
1716551986042750700,0.435750732421875,0.30664533376693726,-0.8767185211181641,0.44362783432006836
1716551986052417500,0.44541748046875,0.3549022674560547,-1.0874608755111694,0.567018985748291
1716551986062084400,0.45508447265625,0.43736663460731506,-1.240859866142273,0.6445965766906738
1716551986071751200,0.464751220703125,0.5008947253227234,-1.3221025466918945,0.650094211101532
1716551986081418000,0.47441796875,0.5253286361694336,-1.276899814605713,0.5706840753555298
1716551986091084800,0.484084716796875,0.5302154421806335,-1.0911259651184082,0.4112529158592224
1716551986100751600,0.493751708984375,0.5497625470161438,-0.8889354467391968,0.19989976286888123
1716551986110418400,0.50341845703125,0.5772506594657898,-0.709346354007721,-0.03840702027082443
1716551986120085200,0.513085205078125,0.6921663284301758,-0.5163186192512512,-0.28702184557914734
1716551986129752300,0.52275244140625,0.8864157199859619,-0.3465031087398529,-0.4617241621017456
1716551986139419100,0.532419189453125,1.0562312602996826,-0.2530434727668762,-0.546631932258606
1716551986149086000,0.5420859375,1.1594644784927368,-0.19562382996082306,-0.5509078502655029
1716551986158752800,0.551752685546875,1.174124836921692,-0.15530791878700256,-0.49593162536621094
1716551986168419600,0.561419677734375,1.098990559577942,-0.16630317270755768,-0.42934927344322205
1716551986178086400,0.57108642578125,0.9639933109283447,-0.19989976286888123,-0.3817031681537628
1716551986187753200,0.580753173828125,0.8137248754501343,-0.19989976286888123,-0.36521029472351074
1716551986197420000,0.590419921875,0.6781167984008789,-0.17057909071445465,-0.37803810834884644
1716551986207086800,0.6000869140625,0.5809157490730286,-0.12843063473701477,-0.4073587656021118
1716551986216754000,0.60975390625,0.5686988234519958,-0.1889045089483261,-0.44339874386787415
1716551986226420700,0.619420654296875,0.6004628539085388,-0.362995982170105,-0.46844348311424255
1716551986236087600,0.629087646484375,0.6163448691368103,-0.5969504714012146,-0.44400960206985474
1716551986245754400,0.63875439453125,0.6542174220085144,-0.8131904006004333,-0.3560476005077362
1716551986255421200,0.648421142578125,0.7446991801261902,-0.932305634021759,-0.22349373996257782
1716551986265088000,0.658087890625,0.8839723467826843,-1.0709679126739502,-0.11903885751962662
1716551986274754800,0.6677548828125,0.9291750192642212,-1.1712232828140259,-0.10132429003715515
1716551986284421600,0.677421630859375,0.7996754050254822,-1.1754992008209229,-0.19234053790569305
1716551986294088400,0.68708837890625,0.5442649126052856,-1.185883641242981,-0.40430453419685364
1716551986303755300,0.69675537109375,0.37689274549484253,-1.2897276878356934,-0.7249993681907654
1716551986313422000,0.706422119140625,0.38605546951293945,-1.4760360717773438,-1.0939511060714722
1716551986323089000,0.7160888671875,0.517998456954956,-1.611033320426941,-1.3871577978134155
1716551986332755700,0.725755615234375,0.6964422464370728,-1.7075471878051758,-1.5191007852554321
1716551986342422500,0.735422607421875,0.9224557280540466,-1.8065043687820435,-1.5068838596343994
1716551986352089600,0.745089599609375,1.1612969636917114,-1.9366148710250854,-1.3871577978134155
1716551986361756400,0.75475634765625,1.4209071397781372,-2.1400270462036133,-1.1770262718200684
1716551986371423200,0.76442333984375,1.6395903825759888,-2.442396402359009,-0.8917606472969055
1716551986381090000,0.774090087890625,1.757483959197998,-2.935350179672241,-0.62543123960495
1716551986390756900,0.7837568359375,1.8155144453048706,-3.6506521701812744,-0.4653892517089844
1716551986400423700,0.793423583984375,1.961506962776184,-4.442997455596924,-0.3969743549823761
1716551986410090500,0.803090576171875,2.2797582149505615,-4.988483905792236,-0.2118876427412033
1716551986419757300,0.81275732421875,2.6242761611938477,-5.366598606109619,0.10216420143842697
1716551986429424000,0.822424072265625,2.882664680480957,-5.81434965133667,0.44484952092170715
1716551986439091000,0.832091064453125,3.1044020652770996,-6.2150654792785645,0.7875348329544067
1716551986448757800,0.8417578125,3.381192207336426,-6.44970703125,1.1351069211959839
1716551986458424800,0.8514248046875,3.6902809143066406,-6.61646842956543,1.5346009731292725
1716551986468091600,0.861091552734375,3.927900552749634,-6.836373329162598,2.0990238189697266
1716551986477758500,0.870758544921875,4.0238037109375,-7.166231155395508,2.865102767944336
1716551986487425300,0.88042529296875,3.9877636432647705,-7.433171272277832,3.7166237831115723
1716551986497092000,0.890092041015625,3.916905403137207,-7.4459991455078125,4.467355251312256
1716551986506759000,0.899759033203125,3.841160297393799,-7.02207088470459,4.971303939819336
1716551986516425700,0.90942578125,3.664625406265259,-6.136266231536865,5.086754322052002
1716551986526092500,0.919092529296875,3.33652400970459,-5.011085510253906,4.7703351974487305
1716551986535759400,0.92875927734375,2.8783886432647705,-3.8260416984558105,4.149714469909668
1716551986545426200,0.93842626953125,2.3084681034088135,-2.7679779529571533,3.431968927383423
1716551986555093000,0.948093017578125,1.6542507410049438,-1.9561619758605957,2.78202748298645
1716551986564759800,0.957759765625,0.9511655569076538,-1.4057886600494385,2.2663960456848145
1716551986574427000,0.967427001953125,0.27060532569885254,-0.9946120381355286,1.7905460596084595
1716551986584093700,0.97709375,-0.31092125177383423,-0.6568135023117065,1.2670499086380005
1716551986593760500,0.986760498046875,-0.7409577369689941,-0.41675055027008057,0.7417212724685669
1716551986603427300,0.99642724609375,-1.032942771911621,-0.35322242975234985,0.31168481707572937
1716551986613094100,1.00609423828125,-1.2314680814743042,-0.4643966257572174,0.03367295488715172
1716551986622761000,1.015760986328125,-1.3243168592453003,-0.7111788988113403,-0.045737188309431076
1716551986632427800,1.025427734375,-1.3200409412384033,-1.0520316362380981,0.07887565344572067
1716551986642094600,1.035094482421875,-1.3011046648025513,-1.4326659440994263,0.35138988494873047
1716551986651761400,1.044761474609375,-1.3401988744735718,-1.8199430704116821,0.7020162343978882
1716551986661428200,1.05442822265625,-1.4135005474090576,-2.2047767639160156,1.0275977849960327
1716551986671095000,1.064094970703125,-1.4122788906097412,-2.6146552562713623,1.171757698059082
1716551986680761900,1.073761962890625,-1.1868761777877808,-3.087451219558716,0.8107470273971558
1716551986690429000,1.083428955078125,-0.675597071647644,-3.187019109725952,-0.24914932250976562
1716551986700095700,1.093095703125,-0.08979454636573792,-2.420405864715576,-1.2515497207641602
1716551986709762600,1.102762451171875,0.16431790590286255,-1.4473261833190918,-1.6052302122116089
1716551986719429400,1.112429443359375,-0.01588202826678753,-0.8864920735359192,-1.5740770101547241
1716551986729096200,1.12209619140625,-0.16431790590286255,-1.0263761281967163,-1.4567943811416626
1716551986738763000,1.131762939453125,-0.043981000781059265,-1.3899065256118774,-1.320575475692749
1716551986748429800,1.141429931640625,0.16798299551010132,-1.4412177801132202,-0.9839985966682434
1716551986758096600,1.1510966796875,0.4190412163734436,-1.5035241842269897,-0.4739411175251007
1716551986767763500,1.160763427734375,0.7007181644439697,-1.7894006967544556,0.08559497445821762
1716551986777430300,1.17043017578125,0.9523872137069702,-2.228599786758423,0.6146650314331055
1716551986787097000,1.18009716796875,1.084941029548645,-2.628704786300659,0.9542961120605469
1716551986796764000,1.189763916015625,1.072113275527954,-2.821732521057129,1.1161706447601318
1716551986806430700,1.1994306640625,1.0281323194503784,-2.7105584144592285,1.085017442703247
1716551986816097500,1.20909765625,1.0043092966079712,-2.2799110412597656,0.890157163143158
1716551986825764400,1.218764404296875,0.9505546689033508,-1.620195984840393,0.6006155610084534
1716551986835431400,1.228431396484375,0.8552625179290771,-0.9487984776496887,0.35200074315071106
1716551986845098200,1.23809814453125,0.762413740158081,-0.4931064546108246,0.23593975603580475
1716551986854765000,1.24776513671875,0.7049940824508667,-0.27503398060798645,0.2170034945011139
1716551986864431900,1.257431884765625,0.6787276864051819,-0.1882936656475067,0.2664821147918701
1716551986874098700,1.2670986328125,0.7074374556541443,-0.22005772590637207,0.3184041380882263
1716551986883765500,1.276765625,0.7605811953544617,-0.4381301999092102,0.20906247198581696
1716551986893432300,1.286432373046875,0.8002862930297852,-0.7142331600189209,-0.019470756873488426
1716551986903099100,1.29609912109375,0.8992435336112976,-1.0544750690460205,-0.2405974566936493
1716551986912766000,1.305765869140625,1.1069315671920776,-1.4564889669418335,-0.3688753843307495
1716551986922432800,1.315432861328125,1.4068576097488403,-1.6605119705200195,-0.4232407808303833
1716551986932099600,1.325099609375,1.723887324333191,-1.301944613456726,-0.44400960206985474
1716551986941766400,1.334766357421875,1.9584527015686035,-0.43202173709869385,-0.47027602791786194
1716551986951433200,1.34443310546875,2.081233024597168,0.5691569447517395,-0.4580591022968292
1716551986961100000,1.35410009765625,2.1435394287109375,1.3779187202453613,-0.5112028121948242
1716551986970767000,1.36376708984375,2.1783576011657715,1.8019230365753174,-0.6962895393371582
1716551986980434000,1.373433837890625,2.1294898986816406,1.902101993560791,-0.9711707830429077
1716551986990100700,1.383100830078125,2.012207269668579,1.8575102090835571,-1.2240616083145142
1716551986999767600,1.392767578125,1.8839292526245117,1.7145719528198242,-1.4024289846420288
1716551987009434400,1.402434326171875,1.7654249668121338,1.514748454093933,-1.4751198291778564
1716551987019101200,1.41210107421875,1.6695219278335571,1.2545275688171387,-1.4256411790847778
1716551987028768000,1.42176806640625,1.5736188888549805,0.895349383354187,-1.3315706253051758
1716551987038434800,1.431434814453125,1.474050760269165,0.4818057715892792,-1.241165280342102
1716551987048101600,1.4411015625,1.4282371997833252,0.18004722893238068,-1.1733611822128296
1716551987057768400,1.4507685546875,1.4215179681777954,0.05726693198084831,-1.1055572032928467
1716551987067435300,1.460435302734375,1.4202961921691895,0.04810422286391258,-1.037142276763916
1716551987077102000,1.47010205078125,1.4282371997833252,0.04688252881169319,-0.963229775428772
1716551987086769000,1.479768798828125,1.4184637069702148,-0.02214321307837963,-0.8734351992607117
1716551987096435700,1.489435791015625,1.376926064491272,-0.1632489264011383,-0.7879166007041931
1716551987106102500,1.4991025390625,1.3115653991699219,-0.33001023530960083,-0.7249993681907654
1716551987115769300,1.508769287109375,1.2504806518554688,-0.4540122151374817,-0.6932352781295776
1716551987125436200,1.518436279296875,1.2217708826065063,-0.48638713359832764,-0.6895701885223389
1716551987135103000,1.52810302734375,1.2119972705841064,-0.4124746024608612,-0.7085064649581909
1716551987144769800,1.537769775390625,1.1484692096710205,-0.19745637476444244,-0.7329403758049011
1716551987154436900,1.547436767578125,1.0232455730438232,0.1360662281513214,-0.7476006746292114
1716551987164103700,1.557103759765625,0.8613709807395935,0.4671454429626465,-0.7537091374397278
1716551987173770500,1.5667705078125,0.7135459780693054,0.682163655757904,-0.7451573014259338
1716551987183437300,1.576437255859375,0.624285876750946,0.7401941418647766,-0.7146149277687073
1716551987193104100,1.586104248046875,0.5913001298904419,0.7279772162437439,-0.663303792476654
1716551987202771000,1.59577099609375,0.5845808386802673,0.6809419989585876,-0.593056321144104
1716551987212437800,1.605437744140625,0.5711421966552734,0.6174138784408569,-0.5057051777839661
1716551987222104600,1.6151044921875,0.550373375415802,0.5276193022727966,-0.4220190942287445
1716551987231771400,1.624771484375,0.5399889945983887,0.4103366434574127,-0.359712690114975
1716551987241438200,1.634438232421875,0.5277720093727112,0.3046600818634033,-0.31206658482551575
1716551987251105000,1.64410498046875,0.5131117105484009,0.23196925222873688,-0.2668638825416565
1716551987260771800,1.653771728515625,0.4868452548980713,0.18798823654651642,-0.21921780705451965
1716551987270438700,1.663438720703125,0.46729815006256104,0.17210622131824493,-0.17096087336540222
1716551987280105500,1.67310546875,0.46241137385368347,0.15927842259407043,-0.12697987258434296
1716551987289772300,1.682772216796875,0.4605788290500641,0.1916533261537552,-0.08422056585550308
1716551987299439000,1.692439208984375,0.46668729186058044,0.2044811248779297,-0.05856497958302498
1716551987309106000,1.70210595703125,0.46546560525894165,0.21242213249206543,-0.0426829531788826
1716551987318772700,1.711772705078125,0.45141613483428955,0.2044811248779297,-0.03290939703583717
1716551987328439800,1.721439697265625,0.42392799258232117,0.18126893043518066,-0.02435753494501114
1716551987338106600,1.731106689453125,0.3915531039237976,0.1378987729549408,-0.0164165198802948
1716551987347773400,1.7407734375,0.3567348122596741,0.10185877978801727,-0.011529741808772087
1716551987357440300,1.750440185546875,0.30969956517219543,0.08108997344970703,-0.011529741808772087
1716551987367107000,1.760107177734375,0.2504473626613617,0.07559234648942947,-0.012751436792314053
1716551987376774000,1.76977392578125,0.1820324808359146,0.08170082420110703,-0.012751436792314053
1716551987386440700,1.779440673828125,0.1172826737165451,0.10124793648719788,-0.00908635277301073
1716551987396107500,1.789107421875,0.07207997888326645,0.11529742181301117,0.00007635590736754239
1716551987405774300,1.7987744140625,0.055587101727724075,0.11529742181301117,0.02145601063966751
1716551987415441200,1.808441162109375,0.06169557198882103,0.09391776472330093,0.04772244393825531
1716551987425108000,1.81810791015625,0.03665083646774292,0.0719272643327713,0.08437328040599823
1716551987434774800,1.82777490234375,-0.012827792204916477,0.05543438717722893,0.13270656764507294
1716551987444441600,1.837441650390625,-0.05619794875383377,0.0462716780602932,0.18035265803337097
1716551987454108400,1.8471083984375,-0.0781884491443634,0.05482354015111923,0.2145601063966751
1716551987463775200,1.856775146484375,-0.09345962852239609,0.06520794332027435,0.23593975603580475
1716551987473442000,1.866442138671875,-0.11239589750766754,0.0590994730591774,0.24937839806079865
1716551987483108900,1.87610888671875,-0.12888877093791962,0.06032116711139679,0.26464956998825073
1716551987492775700,1.885775634765625,-0.12278030067682266,0.06826218217611313,0.27625566720962524
1716551987502442500,1.8954423828125,-0.09895725548267365,0.08108997344970703,0.27747735381126404
1716551987512109300,1.905109375,-0.05497625470161438,0.09697200357913971,0.2518217861652374
1716551987521776000,1.914776123046875,0.01588202826678753,0.08903098851442337,0.1779092699289322
1716551987531443200,1.924443115234375,0.07513421028852463,0.0719272643327713,0.07215633243322372
1716551987541110000,1.934110107421875,0.13682979345321655,0.051769305020570755,-0.02557922899723053
1716551987550776800,1.94377685546875,0.23334364593029022,0.013896775431931019,-0.09765920788049698
1716551987560443600,1.953443603515625,0.3903313875198364,-0.007482878863811493,-0.1483595222234726
1716551987570110500,1.9631103515625,0.5894675850868225,0.0010689827613532543,-0.16301986575126648
1716551987579777300,1.97277734375,0.7880693078041077,0.028557108715176582,-0.1483595222234726
1716551987589444000,1.982444091796875,0.960328221321106,0.062153708189725876,-0.13186664879322052
1716551987599111000,1.99211083984375,1.1063207387924194,0.11774080991744995,-0.12636902928352356
1716551987608777700,2.00177783203125,1.2376528978347778,0.1898207813501358,-0.12942326068878174
1716551987618444500,2.011444580078125,1.38731050491333,0.27839362621307373,-0.12636902928352356
1716551987628111400,2.021111328125,1.5522392988204956,0.40422818064689636,-0.12697987258434296
1716551987637778200,2.030778076171875,1.723887324333191,0.5257867574691772,-0.14347274601459503
1716551987647445000,2.040445068359375,1.863160490989685,0.5844281315803528,-0.16668494045734406
1716551987657111800,2.05011181640625,1.9486790895462036,0.5972558856010437,-0.17096087336540222
1716551987666778600,2.059778564453125,1.9938818216323853,0.553274929523468,-0.15263545513153076
1716551987676445400,2.069445556640625,2.0170938968658447,0.4756973087787628,-0.1343100368976593
1716551987686112300,2.0791123046875,1.997546911239624,0.4506525695323944,-0.1214822456240654
1716551987695779000,2.088779052734375,1.9382946491241455,0.5453338623046875,-0.10926530510187149
1716551987705446000,2.09844580078125,1.8087950944900513,0.6986565589904785,-0.12820157408714294
1716551987715112700,2.10811279296875,1.5840033292770386,0.825101912021637,-0.19172967970371246
1716551987724779500,2.117779541015625,1.3439403772354126,0.8696937561035156,-0.2399866133928299
1716551987734446300,2.1274462890625,1.164351224899292,0.8477032780647278,-0.20944425463676453
1716551987744113400,2.137113525390625,1.0886061191558838,0.7780666947364807,-0.10560022294521332
1716551987753780200,2.1467802734375,1.1448041200637817,0.6937697529792786,0.045889899134635925
1716551987763447000,2.156447021484375,1.2969050407409668,0.6711684465408325,0.19745637476444244
1716551987773113900,2.16611376953125,1.4978737831115723,0.7554653286933899,0.3049654960632324
1716551987782780700,2.17578076171875,1.6377578973770142,0.8867974877357483,0.3239017724990845
1716551987792447500,2.185447509765625,1.6927341222763062,1.0712733268737793,0.26342788338661194
1716551987802114300,2.1951142578125,1.7868045568466187,1.2624685764312744,0.1650814712047577
1716551987811781000,2.204781005859375,1.9382946491241455,1.3846380710601807,0.07643226534128189
1716551987821448000,2.214447998046875,2.1294898986816406,1.384027123451233,0.0037414394319057465
1716551987831114800,2.22411474609375,2.3610010147094727,1.2820156812667847,-0.028633465990424156
1716551987840781600,2.233781494140625,2.6352715492248535,1.084712028503418,-0.014583977870643139
1716551987850448400,2.243448486328125,2.9443602561950684,0.844649076461792,0.04650074616074562
1716551987860115200,2.253115234375,3.23817777633667,0.5795413255691528,0.17118994891643524
1716551987869782000,2.262781982421875,3.4153997898101807,0.1244601309299469,0.3239017724990845
1716551987879448800,2.27244873046875,3.4990859031677246,-0.35200074315071106,0.35627666115760803
1716551987889115600,2.28211572265625,3.864372491836548,-0.9469659924507141,0.29885703325271606
1716551987898782500,2.291782470703125,5.36155891418457,-1.6195851564407349,0.3342861533164978
1716551987908449300,2.30144921875,7.456230640411377,-1.9537185430526733,0.409420371055603
1716551987918116000,2.3111162109375,8.59668254852295,-2.4588892459869385,0.645818293094635
1716551987927783000,2.320782958984375,8.013934135437012,-3.2053446769714355,0.6794148683547974
1716551987937449700,2.33044970703125,5.926592826843262,-4.085651874542236,0.1895153671503067
1716551987947116500,2.340116455078125,3.2198522090911865,-3.7881693840026855,-0.5961105823516846
1716551987956783400,2.349783447265625,0.7782957553863525,-1.8651458024978638,-1.2546038627624512
1716551987966450200,2.3594501953125,-0.4966188073158264,0.0004581354442052543,-1.3761625289916992
1716551987976117000,2.369116943359375,-0.8405258059501648,1.1256388425827026,-1.1782480478286743
1716551987985783800,2.37878369140625,-0.7165238261222839,1.5581187009811401,-0.7915816903114319
1716551987995450600,2.38845068359375,-0.4202629029750824,1.380972981452942,-0.3688753843307495
1716551988005117400,2.398117431640625,-0.11239589750766754,0.92711341381073,0.0293970238417387
1716551988014784300,2.4077841796875,0.07085828483104706,0.4005630910396576,0.35383328795433044
1716551988024451000,2.417451171875,0.07513421028852463,-0.04169032722711563,0.5285356044769287
1716551988034118100,2.4271181640625,-0.004275931045413017,-0.2835858464241028,0.5358657836914062
1716551988043785000,2.436784912109375,-0.10140064358711243,-0.28602921962738037,0.4246915578842163
1716551988053451800,2.44645166015625,-0.1575985997915268,-0.06245913356542587,0.24449162185192108
1716551988063118600,2.45611865234375,-0.1557660549879074,0.26434415578842163,0.049554985016584396
1716551988072785400,2.465785400390625,-0.12094775587320328,0.5044071078300476,-0.11659546941518784
1716551988082452200,2.4754521484375,-0.07757759839296341,0.580763041973114,-0.19417306780815125
1716551988092119000,2.485119140625,-0.043981000781059265,0.4402681589126587,-0.16851748526096344
1716551988101785900,2.494785888671875,-0.0012216945178806782,0.1525591015815735,-0.06467345356941223
1716551988111452700,2.50445263671875,0.006719320081174374,-0.10827267915010452,0.06604786217212677
1716551988121119500,2.514119384765625,-0.007330167107284069,-0.23777230083942413,0.14614520967006683
1716551988130786300,2.523786376953125,-0.005497625097632408,-0.22189027070999146,0.1650814712047577
1716551988140453000,2.533453125,-0.012216945178806782,-0.09300149232149124,0.13331741094589233
1716551988150120000,2.543119873046875,-0.013438640162348747,0.0719272643327713,0.06604786217212677
1716551988159786800,2.552786865234375,-0.012827792204916477,0.18737739324569702,-0.0035887276753783226
1716551988169453600,2.56245361328125,-0.005497625097632408,0.21364383399486542,-0.04512634128332138
1716551988179120400,2.572120361328125,0.006108472589403391,0.16905197501182556,-0.050013117492198944
1716551988188787200,2.581787109375,0.011606098152697086,0.07864658534526825,-0.03352024406194687
1716551988198454000,2.5914541015625,0.01038440316915512,-0.015423892997205257,-0.014583977870643139
1716551988208120800,2.601120849609375,0.01038440316915512,-0.08017370104789734,-0.0029778804164379835
1716551988217787600,2.61078759765625,0.011606098152697086,-0.10338589549064636,0.004963133949786425
1716551988227454500,2.620454345703125,0.007330167107284069,-0.09727742522954941,0.00862821750342846
1716551988237121300,2.630121337890625,-0.0006108472589403391,-0.08139539510011673,0.007406522985547781
1716551988246788000,2.6397880859375,-0.00916270911693573,-0.06123743951320648,0.00862821750342846
1716551988256455000,2.649454833984375,-0.015271181240677834,-0.04352286830544472,0.0165692325681448
1716551988266121700,2.659121826171875,-0.01588202826678753,-0.03374931216239929,0.02695363573729992
1716551988275788500,2.66878857421875,-0.009773556143045425,-0.023364907130599022,0.031229566782712936
1716551988285455400,2.678455322265625,-0.0030542362947016954,0.0016798300202935934,0.023288551717996597
1716551988295122200,2.6881220703125,0.0012216945178806782,0.04077405482530594,0.006184828467667103
1716551988304789000,2.6977890625,0.0036650835536420345,0.07681404054164886,-0.009697199799120426
1716551988314455800,2.707455810546875,0.006108472589403391,0.08964183181524277,-0.0164165198802948
1716551988324122600,2.71712255859375,0.005497625097632408,0.07681404054164886,-0.013973130844533443
1716551988333789400,2.72678955078125,0.006719320081174374,0.04749337583780289,-0.00786465872079134
1716551988343456300,2.736456298828125,0.00916270911693573,0.013896775431931019,-0.004810422193259001
1716551988353123000,2.746123046875,0.008551862090826035,-0.01847812905907631,-0.006032116711139679
1716551988362790000,2.755789794921875,0.006719320081174374,-0.039857782423496246,-0.009697199799120426
1716551988372456700,2.765456787109375,0.005497625097632408,-0.04840964451432228,-0.008475505746901035
1716551988382123500,2.77512353515625,0.004275931045413017,-0.045355409383773804,-0.004810422193259001
1716551988391790300,2.784790283203125,0.004275931045413017,-0.0325276181101799,0.004352286923676729
1716551988401457200,2.79445703125,0.005497625097632408,-0.016645587980747223,0.01901262067258358
1716551988411124000,2.8041240234375,0.007941014133393764,0.007177455350756645,0.030007870867848396
1716551988420790800,2.813790771484375,0.012216945178806782,0.04504998400807381,0.026342788711190224
1716551988430457600,2.82345751953125,0.016492875292897224,0.07742489129304886,0.011071606539189816
1716551988440124400,2.83312451171875,0.016492875292897224,0.08108997344970703,-0.0029778804164379835
1716551988449791200,2.842791259765625,0.014660334214568138,0.04749337583780289,-0.0023670331574976444
1716551988459458300,2.852458251953125,0.010995250195264816,-0.014202198944985867,0.009849912486970425
1716551988469125000,2.862125,0.006719320081174374,-0.07711946964263916,0.024510245770215988
1716551988478792000,2.8717919921875,0.0024433890357613564,-0.11010521650314331,0.02817532978951931
1716551988488458800,2.881458740234375,-0.0036650835536420345,-0.0978882759809494,0.018401773646473885
1716551988498125600,2.89112548828125,-0.01038440316915512,-0.0594048947095871,-0.0005344913806766272
1716551988507792400,2.90079248046875,-0.015271181240677834,-0.027029991149902344,-0.011529741808772087
1716551988517459200,2.910459228515625,-0.01588202826678753,-0.01175880990922451,-0.00786465872079134
1716551988527126000,2.9201259765625,-0.015271181240677834,-0.0007635590736754239,0.005573981441557407
1716551988536792800,2.929792724609375,-0.014049487188458443,0.019394399598240852,0.014736690558493137
1716551988546459600,2.939459716796875,-0.011606098152697086,0.04932591691613197,0.012904148548841476
1716551988556126500,2.94912646484375,-0.011606098152697086,0.07803573459386826,0.005573981441557407
1716551988565793300,2.958793212890625,-0.014660334214568138,0.09391776472330093,0.00007635590736754239
1716551988575460000,2.968460205078125,-0.02076880633831024,0.08964183181524277,0.0025197449140250683
1716551988585127000,2.978126953125,-0.02626643143594265,0.06887302547693253,0.012293301522731781
1716551988594793700,2.987793701171875,-0.02748812735080719,0.042606595903635025,0.022677704691886902
1716551988604460500,2.99746044921875,-0.02748812735080719,0.019394399598240852,0.02817532978951931
1716551988614127400,3.00712744140625,-0.023823043331503868,0.004734066314995289,0.025121092796325684
1716551988623794200,3.016794189453125,-0.018936265259981155,-0.001374406274408102,0.015958385542035103
1716551988633461000,3.0264609375,-0.014049487188458443,-0.0050394898280501366,0.007406522985547781
1716551988643127800,3.0361279296875,-0.00916270911693573,-0.010537114925682545,0.00129805039614439
1716551988652794600,3.045794677734375,-0.0036650835536420345,-0.019088976085186005,-0.0011453386396169662
1716551988662461400,3.05546142578125,0,-0.028251685202121735,-0.0011453386396169662
1716551988672128300,3.065128173828125,0.0018325417768210173,-0.027029991149902344,-0.0017561858985573053
1716551988681795000,3.074795166015625,0.0024433890357613564,-0.02092151902616024,-0.0029778804164379835
1716551988691462000,3.0844619140625,0.0006108472589403391,-0.02092151902616024,-0.0029778804164379835
1716551988701128700,3.094128662109375,0,-0.02641914412379265,-0.0011453386396169662
1716551988710795500,3.10379541015625,0.004275931045413017,-0.025808297097682953,0.0037414394319057465
1716551988720462300,3.11346240234375,0.007941014133393764,-0.012369656935334206,0.008017370477318764
1716551988730129200,3.123129150390625,0.009773556143045425,0.012675080448389053,0.007406522985547781
1716551988739796000,3.1327958984375,0.011606098152697086,0.04077405482530594,0.0067956759594380856
1716551988749462800,3.142462890625,0.013438640162348747,0.06520794332027435,0.007406522985547781
1716551988759129600,3.152129638671875,0.012827792204916477,0.08353336155414581,0.00862821750342846
1716551988768796400,3.16179638671875,0.012216945178806782,0.08842013776302338,0.01046075951308012
1716551988778463200,3.171463134765625,0.012216945178806782,0.07986827939748764,0.012904148548841476
1716551988788130000,3.181130126953125,0.010995250195264816,0.0584886260330677,0.014736690558493137
1716551988797796900,3.190796875,0.00916270911693573,0.032222192734479904,0.017180079594254494
1716551988807463700,3.200463623046875,0.0036650835536420345,0.013285927474498749,0.015958385542035103
1716551988817130500,3.210130615234375,-0.004275931045413017,0.013285927474498749,0.006184828467667103
1716551988826797300,3.21979736328125,-0.013438640162348747,0.027946261689066887,-0.008475505746901035
1716551988836464000,3.229464111328125,-0.01954711228609085,0.029778804630041122,-0.015194825828075409
1716551988846131000,3.239130859375,-0.022601349279284477,0.004734066314995289,-0.009697199799120426
1716551988855797800,3.2487978515625,-0.021379653364419937,-0.029473381116986275,0.004963133949786425
1716551988865464600,3.258464599609375,-0.017714571207761765,-0.051463883370161057,0.0165692325681448
1716551988875131400,3.26813134765625,-0.010995250195264816,-0.04230117425322533,0.01779092662036419
1716551988884798200,3.277798095703125,-0.008551862090826035,-0.009315420873463154,0.00862821750342846
1716551988894465000,3.287465087890625,-0.006108472589403391,0.03161134570837021,-0.004199574701488018
1716551988904131800,3.2971318359375,-0.004886778071522713,0.05360184609889984,-0.00908635277301073
1716551988913798700,3.306798583984375,-0.006719320081174374,0.051769305020570755,-0.0011453386396169662
1716551988923465500,3.316465576171875,-0.009773556143045425,0.0328330397605896,0.012293301522731781
1716551988933132300,3.32613232421875,-0.013438640162348747,0.010842538438737392,0.022066857665777206
1716551988942799000,3.335799072265625,-0.020157959312200546,-0.0050394898280501366,0.025731941685080528
1716551988952466000,3.3454658203125,-0.02504473738372326,-0.014202198944985867,0.02145601063966751
1716551988962132700,3.3551328125,-0.028098974376916885,-0.01969982497394085,0.012293301522731781
1716551988971799600,3.364799560546875,-0.03237490355968475,-0.01969982497394085,0.0031305921729654074
1716551988981466400,3.37446630859375,-0.0397050715982914,-0.016034740954637527,-0.006032116711139679
1716551988991133200,3.38413330078125,-0.05008947476744652,-0.012980503961443901,-0.015194825828075409
1716551989000800000,3.393800048828125,-0.0647498071193695,-0.008704573847353458,-0.02557922899723053
1716551989010466800,3.403466796875,-0.08124268800020218,-0.005650337319821119,-0.03474193811416626
1716551989020133600,3.413133544921875,-0.10262233763933182,-0.007482878863811493,-0.03840702027082443
1716551989029800400,3.422800537109375,-0.12888877093791962,-0.015423892997205257,-0.03168770298361778
1716551989039467300,3.43246728515625,-0.15026842057704926,-0.02092151902616024,-0.017027366906404495
1716551989049134000,3.442134033203125,-0.16187451779842377,-0.014813045971095562,-0.0017561858985573053
1716551989058801000,3.45180078125,-0.17286977171897888,0.014507622458040714,0.0025197449140250683
1716551989068467700,3.4614677734375,-0.1954711228609085,0.07498150318861008,-0.010308047756552696
1716551989078134500,3.471134521484375,-0.2229592502117157,0.15683503448963165,-0.03779617324471474
1716551989087801300,3.48080126953125,-0.25716668367385864,0.22158484160900116,-0.06284090876579285
1716551989097468200,3.49046826171875,-0.3304683566093445,0.296108216047287,-0.061619218438863754
1716551989107135000,3.500135009765625,-0.38849884271621704,0.3327590525150299,-0.04695888236165047
1716551989116801800,3.5098017578125,-0.4220954477787018,0.34253260493278503,-0.02435753494501114
1716551989126468600,3.519468505859375,-0.45019441843032837,0.33764582872390747,-0.014583977870643139
1716551989136135400,3.529135498046875,-0.4734066128730774,0.3229855000972748,-0.021914144977927208
1716551989145802200,3.53880224609375,-0.48012593388557434,0.3107685446739197,-0.03779617324471474
1716551989155469000,3.548468994140625,-0.474017471075058,0.2942756712436676,-0.05123481526970863
1716551989165136000,3.558135986328125,-0.4605788290500641,0.2515163719654083,-0.05306735634803772
1716551989174802700,3.567802734375,-0.4337015450000763,0.18126893043518066,-0.03962871432304382
1716551989184469500,3.577469482421875,-0.3799470067024231,0.07803573459386826,-0.01763821393251419
1716551989194136300,3.58713623046875,-0.29442837834358215,-0.05085303261876106,0.00007635590736754239
1716551989203803100,3.59680322265625,-0.23945212364196777,-0.17913095653057098,0.01046075951308012
1716551989213470000,3.606469970703125,-0.2376195788383484,-0.28969430923461914,0.028786176815629005
1716551989223136800,3.61613671875,-0.2229592502117157,-0.3715478479862213,0.057496000081300735
1716551989232803600,3.625803466796875,-0.18997350335121155,-0.44484952092170715,0.08070819079875946
1716551989242470400,3.635470458984375,-0.15393351018428802,-0.5138752460479736,0.09842276573181152
1716551989252137200,3.64513720703125,-0.12400199472904205,-0.5761816501617432,0.10827267915010452
1716551989261804000,3.654803955078125,-0.09407047927379608,-0.6244385838508606,0.10827267915010452
1716551989271470800,3.664470947265625,-0.06413896381855011,-0.6574243903160095,0.09842276573181152
1716551989281137700,3.6741376953125,-0.036039989441633224,-0.6824691295623779,0.07826480269432068
1716551989290804500,3.683804443359375,-0.008551862090826035,-0.7099572420120239,0.0489441379904747
1716551989300471300,3.69347119140625,0.01954711228609085,-0.755770742893219,0.01779092662036419
1716551989310137900,3.703137939453125,0.042759306728839874,-0.8266290426254272,-0.006642963737249374
1716551989319804700,3.7128046875,0.06169557198882103,-0.917645275592804,-0.00908635277301073
1716551989329471500,3.722471435546875,0.06352811306715012,-1.0275977849960327,0.015347537584602833
1716551989339138600,3.732138671875,0.04337015375494957,-1.166947364807129,0.06726955622434616
1716551989348805400,3.741805419921875,0.023823043331503868,-1.3355411291122437,0.14431266486644745
1716551989358472000,3.751471923828125,0.02993151545524597,-1.5016915798187256,0.2304421216249466
1716551989368138800,3.761138671875,0.051922015845775604,-1.6030923128128052,0.2958027720451355
1716551989377805600,3.7708056640625,0.07452336698770523,-1.587821125984192,0.32695600390434265
1716551989387472400,3.780472412109375,0.10384403169155121,-1.4662624597549438,0.3184041380882263
1716551989397139200,3.79013916015625,0.14660334587097168,-1.278732419013977,0.2664821147918701
1716551989406806000,3.799805908203125,0.1844758689403534,-1.080130696296692,0.17241163551807404
1716551989416472800,3.809472900390625,0.18753011524677277,-0.9060391783714294,0.05688514932990074
1716551989426139600,3.8191396484375,0.1582094430923462,-0.7960866689682007,-0.045737188309431076
1716551989435806500,3.828806396484375,0.13805148005485535,-0.7740961909294128,-0.10315682739019394
1716551989445473300,3.838473388671875,0.1050657257437706,-0.7997517585754395,-0.09888090193271637
1716551989455140000,3.84814013671875,0.007941014133393764,-0.8400676846504211,-0.0695602297782898
1716551989464807000,3.857806884765625,-0.12033691257238388,-0.8467870354652405,-0.07444700598716736
1716551989474473700,3.8674736328125,-0.19363857805728912,-0.830294132232666,-0.11293038725852966
1716551989484140500,3.877140625,-0.2095206081867218,-0.8101361989974976,-0.12697987258434296
1716551989493807400,3.886807373046875,-0.21807247400283813,-0.7618792653083801,-0.09949174523353577
1716551989503474200,3.89647412109375,-0.2235700935125351,-0.6519267559051514,-0.036574479192495346
1716551989513141000,3.90614111328125,-0.22967857122421265,-0.3507790267467499,0.13453911244869232
1716551989522807800,3.915807861328125,-0.25594499707221985,0.43049460649490356,0.43568679690361023
1716551989532474600,3.925474609375,-0.2907632887363434,0.8843541145324707,0.3874298632144928
1716551989542141400,3.935141357421875,-0.24433889985084534,0.2667875289916992,-0.20516832172870636
1716551989551808300,3.944808349609375,-0.08124268800020218,-0.5083776116371155,-0.8276216983795166
1716551989561475000,3.95447509765625,0.12094775587320328,-0.6586460471153259,-1.073182225227356
1716551989571142000,3.964141845703125,0.3689517378807068,-0.42224815487861633,-0.9155836701393127
1716551989580808700,3.97380859375,0.5674771070480347,-0.19989976286888123,-0.51425701379776
1716551989590475500,3.9834755859375,0.6193991303443909,0.004123218823224306,0.015347537584602833
1716551989600142300,3.993142333984375,0.6004628539085388,0.21914145350456238,0.4937172830104828
1716551989609809200,4.00280908203125,0.6096255779266357,0.4775298535823822,0.8089144825935364
1716551989619476000,4.01247607421875,0.5980194807052612,0.733474850654602,0.9634588360786438
1716551989629142800,4.022142822265625,0.5393781065940857,0.9442171454429626,1.0245435237884521
1716551989638809600,4.0318095703125,0.47646087408065796,1.0920422077178955,1.0318737030029297
1716551989648476400,4.041476318359375,0.43858832120895386,1.2215417623519897,1.0062181949615479
1716551989658143200,4.051143310546875,0.4086568057537079,1.3198882341384888,0.9304730892181396
1716551989667810000,4.06081005859375,0.38483378291130066,1.4939796924591064,0.7893673777580261
1716551989677476900,4.070476806640625,0.3512371778488159,1.9424179792404175,0.5407525300979614
1716551989687143700,4.080143798828125,0.28343313932418823,2.5019540786743164,0.17974179983139038
1716551989696810500,4.089810546875,0.17958909273147583,2.8495261669158936,-0.18378867208957672
1716551989706477300,4.099477294921875,0.045202698558568954,2.9356555938720703,-0.46600010991096497
1716551989716144000,4.10914404296875,-0.1435490995645523,2.8819010257720947,-0.6388698816299438
1716551989725811000,4.11881103515625,-0.41476529836654663,2.7621748447418213,-0.7482115626335144
1716551989735477800,4.128477783203125,-0.7568397521972656,2.6088523864746094,-0.7323294878005981
1716551989745144600,4.13814453125,-1.1575555801391602,2.3113696575164795,-0.4745519757270813
1716551989754811100,4.14781103515625,-1.5185662508010864,1.8575102090835571,-0.05306735634803772
1716551989764478000,4.15747802734375,-1.8392610549926758,1.3919682502746582,0.3379512429237366
1716551989774145000,4.16714501953125,-2.1386525630950928,1.1238062381744385,0.5859552621841431
1716551989783811600,4.1768115234375,-2.3774938583374023,1.0144646167755127,0.7142331600189209
1716551989793478400,4.186478515625,-2.48622465133667,0.9991934299468994,0.7203416228294373
1716551989803145200,4.196145263671875,-2.4935548305511475,0.8904625773429871,0.6574243903160095
1716551989812812000,4.20581201171875,-2.475229501724243,0.7322531342506409,0.5352548956871033
1716551989822478800,4.215478759765625,-2.4153664112091064,0.9026795625686646,0.28725093603134155
1716551989832145700,4.225145751953125,-2.295029401779175,1.5985108613967896,-0.1220930963754654
1716551989841812500,4.2348125,-2.2015697956085205,2.291822671890259,-0.5441885590553284
1716551989851479300,4.244479248046875,-2.0219807624816895,2.6497790813446045,-0.8111287951469421
1716551989861146000,4.25414599609375,-1.1019684076309204,2.148273468017578,-0.7598176598548889
1716551989870813000,4.26381298828125,1.4905437231063843,1.2942326068878174,-0.3175642192363739
1716551989880479700,4.273479736328125,4.391533851623535,0.35291701555252075,0.0067956759594380856
1716551989890146600,4.283146484375,4.93274450302124,-1.0294303894042969,0.03245126083493233
1716551989899813400,4.2928134765625,3.119673252105713,-1.314772367477417,0.10277505218982697
1716551989909480200,4.302480224609375,0.9462787508964539,-0.650094211101532,0.13514995574951172
1716551989919147000,4.31214697265625,-0.20035789906978607,-0.015423892997205257,0.22494450211524963
1716551989928813800,4.321813720703125,-0.3261924386024475,-0.05207473039627075,0.3574983477592468
1716551989938480600,4.331480712890625,0.004275931045413017,-0.5413633584976196,0.5279247164726257
1716551989948147500,4.3411474609375,0.36101073026657104,-1.089293360710144,0.7105680704116821
1716551989957814300,4.350814208984375,0.6035171151161194,-1.4613757133483887,0.8339592218399048
1716551989967481000,4.360481201171875,0.7440882921218872,-1.6140875816345215,0.8437327742576599
1716551989977148000,4.37014794921875,0.8460997939109802,-1.5132976770401,0.7893673777580261
1716551989986814700,4.379814697265625,0.9420028328895569,-1.2677371501922607,0.700794517993927
1716551989996481500,4.3894814453125,1.0116394758224487,-0.9707890152931213,0.6091674566268921
1716551990006148400,4.3991484375,1.0409600734710693,-0.705681324005127,0.5315898060798645
1716551990015815200,4.408815185546875,1.0275214910507202,-0.48516544699668884,0.4515688419342041
1716551990025482000,4.41848193359375,0.9731560349464417,-0.3324536085128784,0.35627666115760803
1716551990035148500,4.4281484375,0.8894699811935425,-0.24021568894386292,0.26464956998825073
1716551990044815400,4.4378154296875,0.8002862930297852,-0.17118994891643524,0.19989976286888123
1716551990054482200,4.447482177734375,0.7373690009117126,-0.12843063473701477,0.15836215019226074
1716551990064149000,4.45714892578125,0.711713433265686,-0.13392825424671173,0.11010521650314331
1716551990073815800,4.46681591796875,0.692777156829834,-0.03130592033267021,0.06360447406768799
1716551990083482600,4.476482666015625,0.6438329815864563,0.6784985661506653,-0.06711684167385101
1716551990093149400,4.4861494140625,0.5796940326690674,0.7316423058509827,-0.12514732778072357
1716551990102816300,4.495816162109375,0.42637139558792114,0.2710634768009186,-0.14164020121097565
1716551990112483000,4.505483154296875,0.16431790590286255,0.04016320779919624,-0.14897038042545319
1716551990122150000,4.51514990234375,-0.20524467527866364,0.09941539168357849,-0.06650599837303162
1716551990131816700,4.524816650390625,-0.6145123243331909,0.041384901851415634,0.12965233623981476
1716551990141483500,4.5344833984375,-0.9559759497642517,-0.28725093603134155,0.3483356535434723
1716551990151150300,4.544150390625,-1.1954281330108643,-0.46989426016807556,0.5169295072555542
1716551990160817200,4.553817138671875,-1.3347012996673584,-0.4491254389286041,0.7001836895942688
1716551990170484000,4.56348388671875,-1.3896775245666504,-0.5395308136940002,0.8553388714790344
1716551990180150800,4.57315087890625,-1.4495404958724976,-0.38193225860595703,1.1070079803466797
1716551990189817600,4.582817626953125,-1.674943208694458,0.7627955079078674,1.7508409023284912
1716551990199484400,4.592484375,-1.770235300064087,2.0224390029907227,2.0379390716552734
1716551990209151200,4.602151123046875,-1.0653176307678223,1.731675624847412,1.491230845451355
1716551990218818000,4.611818115234375,1.2413179874420166,-0.3477247953414917,0.6384881138801575
1716551990228484900,4.62148486328125,4.102602958679199,-2.9194681644439697,0.7893673777580261
1716551990238151700,4.631151611328125,4.629153251647949,-5.169905662536621,0.6281036734580994
1716551990247818500,4.640818603515625,3.606595039367676,-6.027535438537598,-0.9919396042823792
1716551990257485000,4.650485107421875,2.706740617752075,-5.116762161254883,-2.6303083896636963
1716551990267152000,4.66015185546875,1.9798322916030884,-4.147347450256348,-3.020028829574585
1716551990276818700,4.669818603515625,1.4404542446136475,-3.4173085689544678,-2.942451238632202
1716551990286485500,4.679485595703125,1.1466366052627563,-3.2884199619293213,-2.9931516647338867
1716551990296152300,4.68915234375,1.0476794242858887,-3.1845757961273193,-2.9668850898742676
1716551990305819100,4.698819091796875,1.0873844623565674,-3.0208687782287598,-2.8398289680480957
1716551990315486000,4.70848583984375,1.2058888673782349,-2.7918009757995605,-2.6510770320892334
1716551990325152800,4.71815283203125,1.3524922132492065,-2.3629863262176514,-2.3865039348602295
1716551990334819600,4.727819580078125,1.4490060806274414,-1.6653987169265747,-2.0474836826324463
1716551990344486400,4.737486328125,1.4007490873336792,-0.6897992491722107,-1.615614652633667
1716551990354153200,4.7471533203125,1.2058888673782349,0.6009209752082825,-1.1244934797286987
1716551990363820000,4.756820068359375,0.9481112957000732,1.9705169200897217,-0.6785749197006226
1716551990373486800,4.76648681640625,0.6720083355903625,2.668104410171509,-0.380481481552124
1716551990383153700,4.776153564453125,0.4318690001964569,2.955202579498291,-0.20639002323150635
1716551990392820500,4.785820556640625,0.2596100866794586,2.9973511695861816,-0.14347274601459503
1716551990402487300,4.7954873046875,0.16004198789596558,2.764007568359375,-0.14897038042545319
1716551990412154000,4.805154052734375,0.11422843486070633,2.0450403690338135,-0.05856497958302498
1716551990421821000,4.814821044921875,0.15210096538066864,0.5471664071083069,0.2689255177974701
1716551990431487500,4.824487548828125,0.21990501880645752,-1.0654703378677368,0.5499152541160583
1716551990441154300,4.834154296875,0.21562908589839935,-2.0074732303619385,0.6189410090446472
1716551990450821400,4.8438212890625,0.19241689145565033,-1.716709852218628,0.6232169270515442
1716551990460488000,4.853488037109375,0.258999228477478,0.9900307059288025,0.48760882019996643
1716551990470154800,4.86315478515625,0.26694026589393616,3.438382863998413,0.023899398744106293
1716551990479821600,4.872821533203125,0.08429691940546036,3.8305468559265137,-0.3713187873363495
1716551990489488400,4.88248828125,-0.23028941452503204,2.7334651947021484,-0.4995967149734497
1716551990499155200,4.8921552734375,-0.5717530250549316,1.4182345867156982,-0.6523085236549377
1716551990508822000,4.901822021484375,-0.8557969927787781,1.1152544021606445,-1.0310338735580444
1716551990518488800,4.91148876953125,-1.2559019327163696,1.5452908277511597,-1.4702329635620117
1716551990528155600,4.92115576171875,-1.776343822479248,1.7206803560256958,-1.82391357421875
1716551990537822500,4.930822509765625,-2.335956335067749,1.5771312713623047,-1.82391357421875
1716551990547489300,4.9404892578125,-2.5277624130249023,1.5899590253829956,-1.0035456418991089
1716551990557156000,4.950156005859375,-1.2705622911453247,0.6992673873901367,0.5926745533943176
1716551990566823000,4.959822998046875,0.739201545715332,-1.166947364807129,1.681815266609192
1716551990576489700,4.96948974609375,1.0537878274917603,-0.7362236380577087,1.6408884525299072
1716551990586156500,4.979156494140625,0.7550835609436035,1.4481661319732666,1.5071128606796265
1716551990595823000,4.988822998046875,1.061728835105896,2.9887993335723877,1.783215880393982
1716551990605490200,4.998490234375,1.3097329139709473,3.038888692855835,2.0874178409576416
1716551990615156700,5.00815673828125,1.1625187397003174,2.2136340141296387,2.1888184547424316
1716551990624823600,5.017823486328125,0.8063947558403015,1.4078502655029297,2.1246795654296875
1716551990634490400,5.027490478515625,0.5357130169868469,1.006523609161377,1.9695242643356323
1716551990644157200,5.0371572265625,0.46363306045532227,0.9155073165893555,1.7483975887298584
1716551990653824000,5.046823974609375,0.5241069197654724,0.9002361297607422,1.4643535614013672
1716551990663490800,5.05649072265625,0.6352811455726624,0.7744016051292419,1.1271659135818481
1716551990673157600,5.06615771484375,0.7489750981330872,0.5318952798843384,0.7844805717468262
1716551990682824400,5.075824462890625,0.8308286070823669,0.2557922899723053,0.5102101564407349
1716551990692491300,5.0854912109375,0.8754204511642456,0.029167955741286278,0.3312319219112396
1716551990702158000,5.095157958984375,0.8913025259971619,-0.10155335813760757,0.26037365198135376
1716551990711825000,5.104824951171875,0.9096279144287109,-0.18218518793582916,0.27564483880996704
1716551990721491700,5.11449169921875,0.9401702880859375,-0.26159533858299255,0.3703261613845825
1716551990731158500,5.124158447265625,0.9804862141609192,-0.3348970115184784,0.5095993280410767
1716551990740825300,5.133825439453125,1.0140827894210815,-0.40575528144836426,0.598783016204834
1716551990750492000,5.143491943359375,0.9890380501747131,-0.5034908652305603,0.6091674566268921
1716551990760159000,5.153158935546875,0.8442672491073608,-0.6555918455123901,0.5908420085906982
1716551990769825500,5.162825439453125,0.5222744345664978,-0.7319477200508118,0.5920637249946594
1716551990779492400,5.172492431640625,0.00916270911693573,-0.5334223508834839,0.6409314870834351
1716551990789159200,5.1821591796875,-0.6181774139404297,-0.1516428291797638,0.6867450475692749
1716551990798826000,5.191825927734375,-1.2143644094467163,-0.0007635590736754239,0.6623111367225647
1716551990808492800,5.201492919921875,-1.702431321144104,-0.23593975603580475,0.6415423154830933
1716551990818159600,5.21115966796875,-2.0708484649658203,0.3571929335594177,0.7722636461257935
1716551990827826400,5.220826416015625,-2.3225176334381104,1.9558565616607666,1.0245435237884521
1716551990837493200,5.2304931640625,-2.419642448425293,1.8355196714401245,1.1351069211959839
1716551990847160000,5.24016015625,-2.4617908000946045,0.9320002198219299,0.9194778203964233
1716551990856827000,5.249826904296875,-2.593122959136963,-0.049020491540431976,0.4228590130805969
1716551990866493700,5.25949365234375,-2.8032543659210205,-0.9885035753250122,-0.24487338960170746
1716551990876160500,5.269160400390625,-2.7397263050079346,-0.9481876492500305,-0.7891383171081543
1716551990885827000,5.2788271484375,-1.4220523834228516,-0.6342121958732605,-0.7512657642364502
1716551990895494000,5.288493896484375,1.6945666074752808,-2.234708309173584,0.3746020793914795
1716551990905160700,5.29816064453125,4.668247699737549,-3.8742988109588623,0.8076927661895752
1716551990914827500,5.30782763671875,4.94923734664917,-4.639079570770264,0.3086305856704712
1716551990924494300,5.317494384765625,3.3181986808776855,-4.758805751800537,-0.17890189588069916
1716551990934161200,5.3271611328125,1.6194324493408203,-4.364198207855225,-0.824567437171936
1716551990943828000,5.336827880859375,0.6909446120262146,-3.484501838684082,-1.314466953277588
1716551990953494800,5.346494873046875,0.4159869849681854,-2.970168352127075,-1.6931922435760498
1716551990963161600,5.35616162109375,0.48012593388557434,-2.454002618789673,-1.8911067247390747
1716551990972828400,5.365828369140625,0.6848361492156982,-1.5749932527542114,-1.9014911651611328
1716551990982495200,5.3754951171875,0.9059628248214722,-0.4943281412124634,-1.7328972816467285
1716551990992162000,5.385162109375,1.0360733270645142,0.22097399830818176,-1.33340322971344
1716551991001828900,5.394828857421875,1.025688886642456,0.40972578525543213,-0.79707932472229
1716551991011495700,5.40449560546875,0.8955784440040588,0.49646610021591187,-0.3016822040081024
1716551991021162200,5.414162353515625,0.7129350900650024,0.9124531149864197,0.04772244393825531
1716551991030829000,5.4238291015625,0.5088357925415039,1.6504329442977905,0.20234315097332
1716551991040495900,5.433495849609375,0.2901524603366852,2.3339710235595703,0.21822518110275269
1716551991050162700,5.44316259765625,0.08063183724880219,2.665661096572876,0.1913478970527649
1716551991059829500,5.45282958984375,-0.10995250940322876,2.7194156646728516,0.1754658818244934
1716551991069496300,5.462496337890625,-0.26999449729919434,2.6784889698028564,0.18218518793582916
1716551991079163100,5.4721630859375,-0.3939964771270752,2.5624279975891113,0.20356485247612
1716551991088830000,5.481829833984375,-0.49234288930892944,2.361459255218506,0.2518217861652374
1716551991098496800,5.491496826171875,-0.5913001298904419,1.9601324796676636,0.3868190348148346
1716551991108163600,5.50116357421875,-0.7275190949440002,1.3907464742660522,0.617719292640686
1716551991117830400,5.510830322265625,-0.8777875304222107,0.8415948152542114,0.8437327742576599
1716551991127497000,5.5204970703125,-1.0469921827316284,0.35658207535743713,1.0037747621536255
1716551991137164000,5.5301640625,-1.2052016258239746,0.06337540596723557,1.0453124046325684
1716551991146830600,5.53983056640625,-1.3444747924804688,-0.06490252166986465,0.9799517393112183
1716551991156497400,5.549497314453125,-1.4825263023376465,-0.14003673195838928,0.8419002294540405
1716551991166164200,5.559164306640625,-1.595533013343811,-0.2420482337474823,0.6861341595649719
1716551991175831000,5.5688310546875,-1.6816625595092773,-0.3739912211894989,0.5523586273193359
1716551991185497900,5.578497802734375,-1.7323628664016724,-0.3880407214164734,0.4020902216434479
1716551991195164700,5.58816455078125,-1.5601038932800293,0.9075663089752197,-0.11354123055934906
1716551991204831500,5.59783154296875,-1.3230952024459839,2.8867878913879395,-0.8312867879867554
1716551991214498300,5.607498291015625,-1.3243168592453003,3.3528642654418945,-1.158700942993164
1716551991224165000,5.6171650390625,-1.3982293605804443,3.0779829025268555,-1.2063469886779785
1716551991233832000,5.62683203125,-1.207645058631897,2.4475886821746826,-1.0353097915649414
1716551991243498800,5.636498779296875,0.6646018028259277,-0.25121092796325684,-0.8948148488998413
1716551991253165300,5.646165283203125,4.252260684967041,-3.299415111541748,-1.0395857095718384
1716551991262832000,5.65583203125,5.071406841278076,-3.37393856048584,-1.3957096338272095
1716551991272499000,5.6654990234375,1.7397693395614624,-0.9622371196746826,-1.042639970779419
1716551991282165800,5.675165771484375,-0.6865923404693604,1.0902096033096313,-0.036574479192495346
1716551991291832600,5.68483251953125,-0.8020424246788025,1.476875901222229,0.6739172339439392
1716551991301499400,5.69449951171875,-0.38544461131095886,0.9448279738426208,0.9720106720924377
1716551991311166200,5.704166259765625,-0.024433890357613564,0.25945737957954407,1.006829023361206
1716551991320833000,5.7138330078125,0.2852656841278076,-0.18646112084388733,0.9542961120605469
1716551991330499800,5.723499755859375,0.6022953987121582,-0.35566580295562744,0.8425110578536987
1716551991340166700,5.733166748046875,0.8900808095932007,-0.22005772590637207,0.7350019812583923
1716551991349833500,5.74283349609375,1.094714641571045,0.08719844371080399,0.6647545099258423
1716551991359500000,5.7525,1.2242143154144287,0.4494308829307556,0.6562026739120483
1716551991369166800,5.762166748046875,1.3054569959640503,0.733474850654602,0.7124006152153015
1716551991378833700,5.771833740234375,1.3573789596557617,0.82082599401474,0.7942541241645813
1716551991388500500,5.78150048828125,1.3842562437057495,0.742026686668396,0.8754968047142029
1716551991398167300,5.791167236328125,1.381201982498169,0.5905365943908691,0.9255862832069397
1716551991407834000,5.800834228515625,1.3714284896850586,0.42194274067878723,0.8968765139579773
1716551991417501000,5.8105009765625,1.3616548776626587,0.18310146033763885,0.7551599144935608
1716551991427167700,5.820167724609375,1.3237823247909546,-0.15897299349308014,0.5505260825157166
1716551991436834600,5.82983447265625,1.2547565698623657,-0.47294849157333374,0.4149180054664612
1716551991446501400,5.83950146484375,1.1631295680999756,-0.7105680704116821,0.3709369897842407
1716551991456168200,5.849168212890625,1.035462498664856,-0.8467870354652405,0.42224815487861633
1716551991465834800,5.858834716796875,0.900465190410614,-0.6042806506156921,0.5865660905838013
1716551991475501600,5.86850146484375,0.6982747912406921,-0.02641914412379265,0.5786250829696655
1716551991485168400,5.87816845703125,0.3512371778488159,0.26190075278282166,0.37887802720069885
1716551991494835200,5.887835205078125,-0.1850867122411728,-0.10766182839870453,0.039170581847429276
1716551991504502000,5.897501953125,-0.8515210747718811,-0.5236487984657288,-0.1459161341190338
1716551991514168800,5.9071689453125,-1.5179554224014282,-0.7411104440689087,-0.09032903611660004
1716551991523835600,5.916835693359375,-2.087341547012329,-1.0795198678970337,0.10888352245092392
1716551991533502500,5.92650244140625,-2.370774507522583,-1.3086638450622559,0.1913478970527649
1716551991543169300,5.936169189453125,-2.474618673324585,-1.093569278717041,0.2011214643716812
1716551991552836000,5.945836181640625,-2.6291630268096924,-0.09116895496845245,0.36910444498062134
1716551991562502700,5.955502685546875,-2.7824857234954834,1.3009519577026367,0.6226060390472412
1716551991572169500,5.96516943359375,-2.53509259223938,1.6125603914260864,0.5786250829696655
1716551991581836300,5.974836181640625,-1.3756279945373535,1.541625738143921,0.6116108298301697
1716551991591503000,5.984503173828125,0.849764883518219,0.1623326539993286,0.6989619731903076
1716551991601170000,5.994169921875,2.8111953735351562,-2.2273781299591064,0.5523586273193359
1716551991610836700,6.003836669921875,2.3689420223236084,-2.9823853969573975,0.36910444498062134
1716551991620503600,6.013503662109375,0.5234960913658142,-3.2377195358276367,-0.24914932250976562
1716551991630170400,6.02317041015625,-0.41171106696128845,-2.9512321949005127,-1.2124555110931396
1716551991639837200,6.032837158203125,-0.2907632887363434,-2.0917701721191406,-1.9473047256469727
1716551991649504000,6.04250390625,0.12400199472904205,-1.3990693092346191,-2.336414337158203
1716551991659170600,6.052170654296875,0.5430431962013245,-0.9567395448684692,-2.5111167430877686
1716551991668837400,6.06183740234375,0.89680016040802,-0.7423321604728699,-2.5392158031463623
1716551991678504200,6.071504150390625,1.0250780582427979,-0.6769714951515198,-2.4591946601867676
1716551991688171000,6.0811708984375,0.9450570940971375,-0.6384881138801575,-2.2185208797454834
1716551991697837800,6.090837890625,0.7795174717903137,-0.5993938446044922,-1.7383949756622314
1716551991707504600,6.100504638671875,0.5650337338447571,-0.9836167693138123,-1.0487483739852905
1716551991717171500,6.11017138671875,0.38483378291130066,-1.7741295099258423,-0.30412557721138
1716551991726838300,6.11983837890625,0.30664533376693726,-2.37337064743042,0.2805316150188446
1716551991736505000,6.129505126953125,0.2980934679508209,-2.5663983821868896,0.7252284288406372
1716551991746171600,6.139171630859375,0.3549022674560547,-1.8443769216537476,1.186418056488037
1716551991755838500,6.14883837890625,0.5265503525733948,0.8684720993041992,1.372726559638977
1716551991765505300,6.15850537109375,0.6236750483512878,2.633897066116333,1.0587509870529175
1716551991775172000,6.168172119140625,0.5754181146621704,2.7249133586883545,0.5395308136940002
1716551991784839000,6.1778388671875,0.4978405237197876,2.0560355186462402,0.09842276573181152
1716551991794505700,6.187505615234375,0.4581354558467865,1.293010950088501,-0.20639002323150635
1716551991804172500,6.197172607421875,0.4312581717967987,0.7047650218009949,-0.3407764136791229
1716551991813839400,6.20683935546875,0.38544461131095886,0.18432316184043884,-0.278469979763031
1716551991823506200,6.216506103515625,0.261442631483078,-0.36605021357536316,-0.0035887276753783226
1716551991833173000,6.226173095703125,0.0018325417768210173,-0.6629219651222229,0.411863774061203
1716551991842839600,6.235839599609375,-0.37689274549484253,-0.12720894813537598,0.7075138092041016
1716551991852506400,6.24550634765625,-0.8209787011146545,1.0731059312820435,0.6445965766906738
1716551991862173200,6.255173095703125,-1.3102673292160034,1.5746878385543823,0.3379512429237366
1716551991871840000,6.264840087890625,-1.776343822479248,1.2630794048309326,-0.043293800204992294
1716551991881506800,6.2745068359375,-2.078789472579956,0.733474850654602,-0.4201865494251251
1716551991891173600,6.284173583984375,-2.087341547012329,0.47386476397514343,-0.7170583009719849
1716551991900840400,6.29384033203125,-2.023202419281006,0.5276193022727966,-0.8948148488998413
1716551991910507300,6.30350732421875,-2.069626808166504,0.8086090683937073,-0.9528453946113586
1716551991920174000,6.313174072265625,-2.1722493171691895,1.1005940437316895,-0.9106969237327576
1716551991929840600,6.322840576171875,-2.269373893737793,1.2032164335250854,-0.782418966293335
1716551991939507500,6.332507568359375,-1.9595980644226074,0.816550076007843,-0.561292290687561
1716551991949174300,6.34217431640625,-0.01588202826678753,-0.8021951913833618,-0.5472427606582642
1716551991958841000,6.351841064453125,3.102569580078125,-1.815056324005127,-1.0292012691497803
1716551991968508000,6.3615078125,3.555283784866333,-1.3068313598632812,-1.717015266418457
1716551991978174700,6.3711748046875,1.1912285089492798,-0.5260922312736511,-1.6736451387405396
1716551991987841500,6.380841552734375,-0.17836740612983704,0.3480302393436432,-0.7732563018798828
1716551991997508400,6.39050830078125,-0.18936264514923096,0.6693359017372131,0.17424418032169342
1716551992007175200,6.400175048828125,0.09040539711713791,0.37002071738243103,0.8480086922645569
1716551992016841700,6.409841796875,0.4691306948661804,-0.03436015918850899,1.270104169845581
1716551992026508500,6.419508544921875,0.692777156829834,0.062153708189725876,1.4686294794082642
1716551992036175400,6.42917529296875,0.6230642199516296,0.448820024728775,1.4057122468948364
1716551992045842200,6.43884228515625,0.6413896083831787,0.6864396333694458,1.1589299440383911
1716551992055509000,6.448509033203125,0.8296069502830505,0.7927270531654358,0.9585720896720886
1716551992065175800,6.45817578125,1.0220237970352173,0.8183826208114624,0.8791618943214417
1716551992074842600,6.467842529296875,1.1753464937210083,0.737750768661499,0.8278507590293884
1716551992084509400,6.477509521484375,1.229711890220642,0.60825115442276,0.7490514516830444
1716551992094176000,6.487176025390625,1.2211600542068481,0.5306735634803772,0.6610894203186035
1716551992103842800,6.4968427734375,1.2034454345703125,0.453095942735672,0.5474718809127808
1716551992113509600,6.506509521484375,1.1710705757141113,0.3107685446739197,0.37826716899871826
1716551992123176400,6.516176513671875,1.1319763660430908,0.012675080448389053,0.1113269105553627
1716551992132843300,6.52584326171875,1.072113275527954,-0.28786176443099976,-0.1605764776468277
1716551992142510000,6.535510009765625,0.9975899457931519,-0.4277457892894745,-0.31267744302749634
1716551992152177000,6.545177001953125,0.9230665564537048,-0.4558447599411011,-0.35177165269851685
1716551992161843700,6.55484375,0.8406021595001221,-0.46012070775032043,-0.2882435619831085
1716551992171510300,6.56451025390625,0.7831825613975525,-0.6006155610084534,-0.10315682739019394
1716551992181177000,6.574177001953125,0.7349256277084351,-0.9573503732681274,0.062993623316288
1716551992190844000,6.583843994140625,0.6303943991661072,-1.3135507106781006,0.049554985016584396
1716551992200510700,6.5935107421875,0.4074351191520691,-1.5804909467697144,-0.06528430432081223
1716551992210177500,6.603177490234375,0.07024743407964706,-1.708158016204834,-0.15080291032791138
1716551992219844400,6.61284423828125,-0.33352261781692505,-1.7625234127044678,-0.21066594123840332
1716551992229511200,6.62251123046875,-0.790436327457428,-1.777794599533081,-0.24487338960170746
1716551992239178000,6.632177978515625,-1.3120999336242676,-1.675172209739685,-0.226547971367836
1716551992248844500,6.641844482421875,-1.8691926002502441,-1.0666919946670532,-0.07811209559440613
1716551992258511400,6.651511474609375,-2.3842132091522217,1.0028585195541382,0.3080197274684906
1716551992268178200,6.66117822265625,-2.6731438636779785,2.541048288345337,0.6763606071472168
1716551992277845000,6.670844970703125,-2.735450267791748,2.417046308517456,0.7307260632514954
1716551992287511800,6.68051171875,-2.8118062019348145,2.0651981830596924,0.5877877473831177
1716551992297178600,6.6901787109375,-2.880221128463745,1.977236270904541,0.43446511030197144
1716551992306845400,6.699845458984375,-2.4709534645080566,2.1232287883758545,0.5224271416664124
1716551992316512300,6.70951220703125,-0.4862344264984131,0.8770239353179932,1.2523895502090454
1716551992326178800,6.7191787109375,3.125170946121216,-1.5707173347473145,1.1900831460952759
1716551992335845600,6.728845703125,5.307804584503174,-3.8028295040130615,0.2554868757724762
1716551992345512400,6.738512451171875,3.3744728565216064,-5.629873752593994,0.2591519355773926
1716551992355179300,6.74817919921875,0.5082249045372009,-4.720322132110596,0.27503398060798645
1716551992364846000,6.75784619140625,-0.16737215220928192,-2.3055665493011475,-0.8160156011581421
1716551992374513000,6.767512939453125,0.1435490995645523,-0.9665130972862244,-1.6412702798843384
1716551992384179500,6.777179443359375,0.4220954477787018,-0.6476507782936096,-2.12811541557312
1716551992393846500,6.786846435546875,0.6420004963874817,-0.5957288146018982,-2.3700110912323
1716551992403513000,6.79651318359375,0.7874584794044495,-0.6946860551834106,-2.3816170692443848
1716551992413180000,6.806179931640625,0.854651689529419,-1.1748883724212646,-2.0517594814300537
1716551992422846700,6.8158466796875,0.8424347043037415,-1.9347823858261108,-1.3541719913482666
1716551992432513500,6.825513427734375,0.771576464176178,-2.0221335887908936,-0.5777851343154907
1716551992442180400,6.835180419921875,0.6652126908302307,-1.019656777381897,0.09842276573181152
1716551992451847200,6.84484716796875,0.5259394645690918,0.7010999321937561,0.43324342370033264
1716551992461513700,6.854513671875,0.32191649079322815,2.0511486530303955,0.3318427801132202
1716551992471180500,6.8641806640625,0.08612946420907974,2.786608934402466,0.13209572434425354
1716551992480847400,6.873847412109375,-0.12033691257238388,2.917941093444824,-0.01885990984737873
1716551992490514200,6.88351416015625,-0.29259583353996277,2.7078094482421875,-0.1080436110496521
1716551992500181000,6.893180908203125,-0.43797749280929565,2.3956665992736816,-0.15263545513153076
1716551992509847800,6.902847900390625,-0.5454866290092468,2.049926996231079,-0.18195612728595734
1716551992519514600,6.9125146484375,-0.610236406326294,1.702354907989502,-0.2253262847661972
1716551992529181200,6.92218115234375,-0.6719319820404053,1.449387788772583,-0.2399866133928299
1716551992538848000,6.931847900390625,-0.7965448498725891,1.2441431283950806,-0.11537377536296844
1716551992548514800,6.941514892578125,-1.0024003982543945,1.0920422077178955,0.19745637476444244
1716551992558181600,6.951181640625,-1.2925528287887573,1.0584455728530884,0.5908420085906982
1716551992567848400,6.960848388671875,-1.6248537302017212,1.043174386024475,0.8571714162826538
1716551992577515300,6.970515380859375,-2.0103747844696045,0.9167290329933167,0.9579612016677856
1716551992587182000,6.98018212890625,-2.4300267696380615,0.7847860455513,1.0104941129684448
1716551992596849000,6.989848876953125,-2.770268678665161,1.5654487609863281,0.9378032684326172
1716551992606515500,6.999515380859375,-2.97001576423645,2.3987207412719727,0.5993938446044922
1716551992616182300,7.009182373046875,-3.029878854751587,2.10184907913208,0.1656923145055771
1716551992625849000,7.01884912109375,-2.9590203762054443,1.233758807182312,-0.26197710633277893
1716551992635516000,7.028515869140625,-2.830742597579956,0.2557922899723053,-0.6932352781295776
1716551992645182700,7.0381826171875,-2.76416015625,-0.5053234100341797,-1.0988378524780273
1716551992654849500,7.047849609375,-2.802032709121704,-0.8724426031112671,-1.3779950141906738
1716551992664516400,7.057516357421875,-2.833796739578247,-0.8608365058898926,-1.489780068397522
1716551992674183000,7.067182861328125,-2.726287603378296,-0.282364159822464,-1.3505069017410278
1716551992683849700,7.076849609375,-1.6120258569717407,0.3736858069896698,-1.0353097915649414
1716551992693516500,7.0865166015625,1.8216228485107422,0.10063708573579788,-0.7427139282226562
1716551992703183400,7.096183349609375,5.223507404327393,-0.4265241026878357,-0.7140040993690491
1716551992712850200,7.10585009765625,4.5778422355651855,-1.23536217212677,-0.5429668426513672
1716551992722517000,7.11551708984375,1.400138258934021,-0.8797727823257446,0.5242596864700317
1716551992732183800,7.125183837890625,-0.24494975805282593,-0.03680354729294777,1.446639060974121
1716551992741850400,7.134850341796875,-0.20463383197784424,0.34070006012916565,1.7135792970657349
1716551992751517200,7.14451708984375,0.3665083646774292,0.4934118688106537,1.648829460144043
1716551992761184000,7.15418408203125,0.896189272403717,0.5508314967155457,1.514443039894104
1716551992770850800,7.163850830078125,1.1295329332351685,0.6113054156303406,1.375780701637268
1716551992780517600,7.173517578125,1.1845091581344604,0.5716003179550171,1.1803096532821655
1716551992790184400,7.183184326171875,1.2785797119140625,0.4653128981590271,0.9628480076789856
1716551992799851300,7.192851318359375,1.438010811805725,0.42194274067878723,0.8015843033790588
1716551992809517800,7.202517822265625,1.571175456047058,0.48424917459487915,0.7227849960327148
1716551992819184600,7.2121845703125,1.6554723978042603,0.5746545791625977,0.6934643387794495
1716551992828851500,7.2218515625,1.6957883834838867,0.6339067220687866,0.6720846891403198
1716551992838518300,7.231518310546875,1.6988425254821777,0.6320741772651672,0.6317687630653381
1716551992848185000,7.24118505859375,1.6768521070480347,0.585038959980011,0.5767925381660461
1716551992857851600,7.2508515625,1.6328710317611694,0.5209000110626221,0.5328115224838257
1716551992867518500,7.2605185546875,1.5632344484329224,0.41705596446990967,0.5016583204269409
1716551992877185300,7.270185302734375,1.4856568574905396,0.270452618598938,0.5138752460479736
1716551992886852000,7.27985205078125,1.38731050491333,-0.05635065957903862,0.6299362182617188
1716551992896519000,7.289518798828125,1.290185809135437,-0.9610154628753662,0.9677347540855408
1716551992906185700,7.299185791015625,1.1331980228424072,-1.8535397052764893,1.3598986864089966
1716551992915852500,7.3088525390625,0.8448781371116638,-1.8352142572402954,1.4802355766296387
1716551992925519000,7.31851904296875,0.4850127100944519,-1.5413967370986938,1.32935631275177
1716551992935186000,7.32818603515625,0.12583453953266144,-1.5957621335983276,1.0544750690460205
1716551992944852700,7.337852783203125,-0.22845686972141266,-1.8486528396606445,0.7734853625297546
1716551992954519600,7.34751953125,-0.5558710098266602,-2.0893266201019287,0.5126535892486572
1716551992964186400,7.357186279296875,-0.8906152844429016,-2.09543514251709,0.34100547432899475
1716551992973853200,7.366853271484375,-1.3340904712677002,-0.5731274485588074,0.23410721123218536
1716551992983520000,7.37652001953125,-1.8417044878005981,2.5312747955322266,0.12293300777673721
1716551992993186600,7.3861865234375,-2.0965042114257812,3.343090772628784,0.022677704691886902
1716551993002853400,7.395853271484375,-2.21134352684021,2.786608934402466,-0.2912977933883667
1716551993012520200,7.405520263671875,-2.4074254035949707,2.121396064758301,-0.7146149277687073
1716551993022187000,7.41518701171875,-2.63649320602417,1.651654601097107,-1.1360995769500732
1716551993031853800,7.424853759765625,-2.601674795150757,1.4200671911239624,-0.7702020406723022
1716551993041520600,7.434520751953125,-1.6389031410217285,0.23441264033317566,1.1748119592666626
1716551993051187200,7.444187255859375,0.7459208369255066,-1.7875680923461914,0.8205205798149109
1716551993060854000,7.45385400390625,3.3029274940490723,-3.810159683227539,-0.20516832172870636
1716551993070520800,7.463520751953125,4.1844563484191895,-5.494265556335449,-0.3578801453113556
1716551993080187600,7.473187744140625,3.457548141479492,-5.943238258361816,-0.46966519951820374
1716551993089854500,7.4828544921875,2.321295976638794,-5.092328071594238,-1.2020710706710815
1716551993099521300,7.492521240234375,1.3243932723999023,-3.0831751823425293,-2.0364882946014404
1716551993109188000,7.50218798828125,0.6090146899223328,-2.1907272338867188,-2.4903478622436523
1716551993118854700,7.511854736328125,0.3549022674560547,-1.9561619758605957,-2.660850763320923
1716551993128521500,7.521521484375,0.41110020875930786,-1.8022284507751465,-2.6455795764923096
1716551993138188300,7.531188232421875,0.5625903010368347,-1.749084711074829,-2.500121593475342
1716551993147855000,7.540855224609375,0.697053074836731,-1.842544436454773,-2.1672096252441406
1716551993157522000,7.55052197265625,0.7972320318222046,-1.916456937789917,-1.6479895114898682
1716551993167188500,7.5601884765625,0.8986326456069946,-1.7222075462341309,-1.096394419670105
1716551993176855300,7.569855224609375,0.9865946769714355,-0.992168664932251,-0.6883485317230225
1716551993186522000,7.579522216796875,1.0036983489990234,0.217308908700943,-0.4910448491573334
1716551993196189000,7.58918896484375,0.9047411680221558,1.353484869003296,-0.4623350203037262
1716551993205855700,7.598855712890625,0.6946097016334534,2.0364882946014404,-0.46600010991096497
1716551993215522600,7.6085224609375,0.42698222398757935,2.258225917816162,-0.44095537066459656
1716551993225189000,7.618189208984375,0.16248537600040436,2.275940418243408,-0.4098021686077118
1716551993234856000,7.62785595703125,-0.053143709897994995,2.2710537910461426,-0.37803810834884644
1716551993244522800,7.637522705078125,-0.21562908589839935,2.2441763877868652,-0.3591018319129944
1716551993254189600,7.647189453125,-0.3695625960826874,2.12811541557312,-0.3303920030593872
1716551993263856400,7.6568564453125,-0.5522059202194214,1.870337963104248,-0.27236151695251465
1716551993273523200,7.666523193359375,-0.7324058413505554,1.450609564781189,-0.22349373996257782
1716551993283189800,7.676189697265625,-0.892447829246521,1.0175188779830933,-0.14164020121097565
1716551993292856600,7.685856689453125,-1.014006495475769,0.7023216485977173,-0.006032116711139679
1716551993302523400,7.6955234375,-1.115407109260559,0.5801522135734558,0.14370182156562805
1716551993312190200,7.705190185546875,-1.2333005666732788,0.6161921620368958,0.31473904848098755
1716551993321857000,7.71485693359375,-1.3658545017242432,0.7805100679397583,0.48516544699668884
1716551993331523600,7.724523681640625,-1.485580563545227,1.0621106624603271,0.6274928450584412
1716551993341190400,7.7341904296875,-1.5228421688079834,2.133613109588623,0.6250494718551636
1716551993350857200,7.743857177734375,-1.479472041130066,3.6191935539245605,0.4778352677822113
1716551993360524000,7.75352392578125,-1.4990191459655762,3.556887149810791,0.2939702570438385
1716551993370190800,7.76319091796875,-1.5900354385375977,2.1641554832458496,0.11682453751564026
1716551993379857700,7.772857666015625,-1.696933627128601,0.6962131857872009,0.07887565344572067
1716551993389524500,7.7825244140625,-1.789171576499939,-0.02886253222823143,0.18707197904586792
1716551993399191000,7.79219091796875,-1.484358787536621,-0.4259132444858551,0.28908345103263855
1716551993408857900,7.80185791015625,0.8289960622787476,-1.0856282711029053,-0.021914144977927208
1716551993418524700,7.811524658203125,3.408069610595703,-0.4271349310874939,-0.7329403758049011
1716551993428191500,7.82119140625,2.179579257965088,0.5312843918800354,-1.1916866302490234
1716551993437858300,7.8308583984375,0.11178504675626755,0.7432484030723572,0.05138752609491348
1716551993447524900,7.84052490234375,-0.15149012207984924,0.5942016839981079,1.524216651916504
1716551993457191700,7.850191650390625,0.0653606578707695,0.4249969720840454,2.1246795654296875
1716551993466858500,7.8598583984375,0.237008735537529,0.3180987238883972,2.1185710430145264
1716551993476525300,7.869525390625,0.40071579813957214,0.32726141810417175,1.7887134552001953
1716551993486192000,7.879192138671875,0.6004628539085388,0.506239652633667,1.3629529476165771
1716551993495858700,7.888858642578125,0.8289960622787476,0.7444701194763184,0.9805625677108765
1716551993505525500,7.898525390625,1.0458468198776245,0.8819107413291931,0.6836907863616943
1716551993515192300,7.9081923828125,1.1845091581344604,0.9057337641716003,0.5334223508834839
1716551993524859100,7.917859130859375,1.216273307800293,0.8788564801216125,0.5511369109153748
1716551993534526000,7.92752587890625,1.2083321809768677,0.7383615970611572,0.6415423154830933
1716551993544192800,7.93719287109375,1.2095539569854736,0.49646610021591187,0.6977402567863464
1716551993553859300,7.946859375,1.2291010618209839,0.2276933193206787,0.6671979427337646
1716551993563526100,7.956526123046875,1.2407071590423584,0.011453386396169662,0.5853443741798401
1716551993573193000,7.96619287109375,1.215051531791687,-0.16752485930919647,0.4931064546108246
1716551993582859800,7.97585986328125,1.1466366052627563,-0.3245126008987427,0.4143071472644806
1716551993592526600,7.985526611328125,1.0696699619293213,-0.48760882019996643,0.39414918422698975
1716551993602193400,7.995193359375,1.0006442070007324,-0.6928535103797913,0.5285356044769287
1716551993611860000,8.00485986328125,0.9542197585105896,-0.7295043468475342,0.7301151752471924
1716551993621526800,8.01452685546875,0.8998543620109558,-0.6867450475692749,0.728893518447876
1716551993631193600,8.024193603515625,0.7673004865646362,-0.9121476411819458,0.45950984954833984
1716551993640860400,8.0338603515625,0.5491516590118408,-1.388684868812561,0.10644013434648514
1716551993650527200,8.04352734375,0.261442631483078,-1.6916651725769043,-0.1483595222234726
1716551993660193800,8.05319384765625,-0.06169557198882103,-1.7894006967544556,-0.31145575642585754
1716551993669860600,8.062860595703125,-0.4062134325504303,-1.7429763078689575,-0.40063944458961487
1716551993679527400,8.07252734375,-0.7873821258544922,-1.5499485731124878,-0.3926984369754791
1716551993689194200,8.0821943359375,-1.1697725057601929,-1.2463574409484863,-0.2919086217880249
1716551993698861000,8.091861083984375,-1.4605357646942139,-0.7069029808044434,-0.0811663269996643
1716551993708527600,8.101527587890626,-1.7274760007858276,0.8153283596038818,0.42041563987731934
1716551993718194400,8.1111943359375,-1.9205037355422974,1.7371731996536255,0.7704311013221741
1716551993727861200,8.120861328125,-1.9828102588653564,1.685251235961914,0.6439857482910156
1716551993737528000,8.130528076171874,-1.5564388036727905,1.4903146028518677,0.35200074315071106
1716551993747195000,8.14019482421875,0.418430358171463,1.1299147605895996,0.39292749762535095
1716551993756861400,8.149861328125,3.4117345809936523,-0.47111594676971436,0.4815003573894501
1716551993766528300,8.1595283203125,3.7477006912231445,-3.3238489627838135,0.09659022092819214
1716551993776195000,8.169195068359375,0.9694909453392029,-5.409968852996826,-0.14102935791015625
1716551993785862000,8.17886181640625,-0.25411245226860046,-2.5077569484710693,-0.32489439845085144
1716551993795528700,8.18852880859375,0.06841489672660828,0.24968381226062775,-1.0860100984573364
1716551993805195500,8.198195556640625,0.3512371778488159,0.11957334727048874,-1.7469468116760254
1716551993814862000,8.207862060546875,0.5790832042694092,-0.2713688910007477,-2.0597004890441895
1716551993824529000,8.21752880859375,0.762413740158081,-0.7918107509613037,-2.0908539295196533
1716551993834195700,8.22719580078125,0.8796964287757874,-1.4277790784835815,-1.9497480392456055
1716551993843862500,8.236862548828125,0.9682692885398865,-1.9738765954971313,-1.7371731996536255
1716551993853529300,8.246529296875,1.0317974090576172,-2.2041659355163574,-1.5019971132278442
1716551993863196000,8.25619580078125,1.0495119094848633,-2.1400270462036133,-1.2069578170776367
1716551993872862700,8.26586279296875,1.0073634386062622,-1.9500535726547241,-0.8312867879867554
1716551993882529500,8.275529541015626,0.9444462060928345,-1.5975946187973022,-0.39147675037384033
1716551993892196400,8.2851962890625,0.9163472652435303,-0.5309789776802063,-0.026190076023340225
1716551993901863200,8.29486328125,0.8876374363899231,0.8770239353179932,0.10949437320232391
1716551993911529700,8.30452978515625,0.8118923902511597,1.6699800491333008,0.06726955622434616
1716551993921196500,8.314196533203125,0.6921663284301758,1.8397955894470215,-0.03290939703583717
1716551993930863400,8.32386328125,0.546097457408905,1.666314959526062,-0.13675342500209808
1716551993940530200,8.3335302734375,0.4062134325504303,1.3724210262298584,-0.24914932250976562
1716551993950197000,8.343197021484375,0.29320669174194336,1.0553913116455078,-0.37437301874160767
1716551993959863600,8.352863525390624,0.19913621246814728,0.789061963558197,-0.4916556775569916
1716551993969530400,8.3625302734375,0.09773556143045425,0.6992673873901367,-0.5258631110191345
1716551993979197200,8.372197265625,-0.05497625470161438,0.8348754644393921,-0.4379011392593384
1716551993988864000,8.381864013671875,-0.2742704153060913,1.1244170665740967,-0.2662530541419983
1716551993998530600,8.391530517578126,-0.5320479869842529,1.4310624599456787,-0.06528430432081223
1716551994008197400,8.401197265625,-0.8258655071258545,1.6498221158981323,0.13392825424671173
1716551994017864200,8.4108642578125,-1.1771026849746704,1.7469468116760254,0.2958027720451355
1716551994027531000,8.420531005859376,-1.6169127225875854,1.7335081100463867,0.42041563987731934
1716551994037197800,8.43019775390625,-2.078789472579956,1.6773102283477783,0.5138752460479736
1716551994046864600,8.43986474609375,-2.4990525245666504,1.6107279062271118,0.5584670901298523
1716551994056531200,8.44953125,-2.810584545135498,1.5404040813446045,0.5456393361091614
1716551994066198000,8.459197998046875,-2.911985158920288,1.5568969249725342,0.49616068601608276
1716551994075864800,8.46886474609375,-2.908931016921997,2.2240185737609863,0.4808894991874695
1716551994085531600,8.47853173828125,-2.9822325706481934,2.8232595920562744,0.6146650314331055
1716551994095198200,8.4881982421875,-3.065307855606079,2.3400795459747314,0.9316948056221008
1716551994104865000,8.497864990234374,-2.954744577407837,1.4469444751739502,1.187639832496643
1716551994114531800,8.50753173828125,-1.5930896997451782,0.09452861547470093,0.890157163143158
1716551994124198700,8.51719873046875,1.7751984596252441,-1.4290008544921875,-0.2387649267911911
1716551994133865500,8.526865478515624,4.095883369445801,-1.384408950805664,-1.462291955947876
1716551994143532000,8.536531982421875,2.3054139614105225,-0.5383091568946838,-1.3382899761199951
1716551994153198800,8.54619873046875,-0.16553960740566254,-0.5566345453262329,-0.012751436792314053
1716551994162865700,8.55586572265625,-0.5082249045372009,-0.3190149664878845,1.0074398517608643
1716551994172532500,8.565532470703126,-0.09956810623407364,-0.23349636793136597,1.3006465435028076
1716551994182199300,8.57519921875,0.32191649079322815,-0.06490252166986465,1.2371183633804321
1716551994191865900,8.584865966796874,0.6322268843650818,0.07559234648942947,1.0410364866256714
1716551994201532700,8.59453271484375,0.8320503234863281,0.08780929446220398,0.8186880350112915
1716551994211199500,8.604199462890625,0.9303967356681824,0.08047912269830704,0.6928535103797913
1716551994220866300,8.6138662109375,0.979264497756958,0.019394399598240852,0.6586460471153259
1716551994230533000,8.623533203125,1.044625163078308,-0.024586603045463562,0.6702521443367004
1716551994240199700,8.63319970703125,1.1154834032058716,0.005955760832875967,0.6940752267837524
1716551994249866500,8.642866455078124,1.1619077920913696,0.013285927474498749,0.6788040399551392
1716551994259533300,8.652533203125,1.1692379713058472,-0.014813045971095562,0.6085565686225891
1716551994269200100,8.6622001953125,1.1393065452575684,-0.02214321307837963,0.5144860744476318
1716551994278867000,8.671866943359374,1.0892170667648315,0.0035123717971146107,0.4289674758911133
1716551994288533500,8.681533447265625,1.0195804834365845,0.018783552572131157,0.35566580295562744
1716551994298200300,8.691200439453125,0.9334509968757629,-0.00992626789957285,0.2964136302471161
1716551994307867100,8.7008671875,0.8424347043037415,-0.10888352245092392,0.24571330845355988
1716551994317534000,8.710533935546875,0.7654679417610168,-0.2793098986148834,0.22433365881443024
1716551994327200500,8.720200439453125,0.6952205300331116,-0.4521796703338623,0.2689255177974701
1716551994336867300,8.729867431640624,0.6212316751480103,-0.6806365847587585,0.3318427801132202
1716551994346534100,8.7395341796875,0.446529358625412,-0.9994988441467285,0.28602921962738037
1716551994356201000,8.749200927734375,0.1710372269153595,-1.255520224571228,0.1656923145055771
1716551994365867800,8.75886767578125,-0.13621893525123596,-1.443661093711853,0.05444176122546196
1716551994375534300,8.768534423828125,-0.4618005156517029,-1.5218496322631836,-0.035352785140275955
1716551994385201200,8.778201171875,-0.8124268651008606,-1.2903385162353516,-0.05184566229581833
1716551994394868000,8.787867919921876,-1.166107416152954,0.4280512034893036,0.125987246632576
1716551994404534800,8.79753466796875,-1.479472041130066,2.32419753074646,0.3953709006309509
1716551994414201300,8.807201416015625,-1.6902143955230713,2.346798896789551,0.4155288338661194
1716551994423868200,8.8168681640625,-1.8215465545654297,1.5660597085952759,0.10216420143842697
1716551994433535000,8.826534912109375,-1.988918662071228,0.9894198179244995,-0.24548424780368805
1716551994443201800,8.836201904296875,-2.2015697956085205,0.8452599048614502,-0.42812758684158325
1716551994452868600,8.84586865234375,-2.3891000747680664,0.9668185114860535,-0.250981867313385
1716551994462535200,8.85553515625,-1.9443268775939941,0.48363831639289856,0.7203416228294373
1716551994472202000,8.865201904296875,0.8198333978652954,-1.4619865417480469,1.325080394744873
1716551994481868800,8.874868896484376,4.64198112487793,-2.865713596343994,-0.05123481526970863
1716551994491535600,8.88453564453125,4.397031307220459,-6.028146266937256,-0.9467368721961975
1716551994501202200,8.8942021484375,1.400138258934021,-7.450885772705078,-0.8074637055397034
1716551994510869000,8.903868896484376,0.4196520745754242,-2.0624494552612305,-1.1098331212997437
1716551994520535800,8.913535888671875,0.42453885078430176,-0.5181511640548706,-1.861175298690796
1716551994530202600,8.92320263671875,0.5381564497947693,-0.520594596862793,-2.2441763877868652
1716551994539869400,8.932869384765626,0.6982747912406921,-0.6366555690765381,-2.3516855239868164
1716551994549536000,8.942535888671875,0.8784747123718262,-1.0593618154525757,-2.27838397026062
1716551994559202800,8.952202880859375,1.0195804834365845,-1.7826813459396362,-2.0309908390045166
1716551994568869600,8.96186962890625,1.0953254699707031,-2.4149081707000732,-1.7164044380187988
1716551994578536400,8.971536376953125,1.1130400896072388,-2.6763508319854736,-1.4146459102630615
1716551994588203000,8.981203125,1.057452917098999,-2.62198543548584,-1.096394419670105
1716551994597869800,8.990869873046876,0.9755994081497192,-2.0575625896453857,-0.7494332194328308
1716551994607536600,9.00053662109375,0.9181798100471497,-0.6042806506156921,-0.4721085727214813
1716551994617203500,9.010203369140624,0.7917343974113464,0.6998782753944397,-0.3548259139060974
1716551994626870000,9.0198701171875,0.5803049206733704,1.3852488994598389,-0.3218401372432709
1716551994636536800,9.029536865234375,0.33291175961494446,1.5801855325698853,-0.30962321162223816
1716551994646203600,9.03920361328125,0.05619794875383377,1.6736451387405396,-0.24853847920894623
1716551994655870500,9.048870361328126,-0.19913621246814728,1.8587318658828735,-0.11170869320631027
1716551994665537000,9.058537109375,-0.4037700295448303,2.0077786445617676,0.011071606539189816
1716551994675203800,9.068203857421874,-0.5570927262306213,2.0401535034179688,0.06421531736850739
1716551994684870700,9.07787060546875,-0.6804838180541992,1.9491372108459473,0.05932854115962982
1716551994694537500,9.087537353515625,-0.7965448498725891,1.8098640441894531,0.04283566400408745
1716551994704204300,9.097204345703124,-0.9339854717254639,1.702354907989502,0.0892600566148758
1716551994713870800,9.106870849609376,-1.1025793552398682,1.6437135934829712,0.19806721806526184
1716551994723537700,9.11653759765625,-1.2809467315673828,1.6033977270126343,0.31229567527770996
1716551994733204500,9.12620458984375,-1.4574815034866333,1.5532318353652954,0.3972034156322479
1716551994742871300,9.135871337890626,-1.6596720218658447,1.5037531852722168,0.44729289412498474
1716551994752537900,9.145537841796875,-1.9522678852081299,1.4102935791015625,0.4821111857891083
1716551994762204700,9.15520458984375,-2.2944185733795166,1.2960652112960815,0.5150969624519348
1716551994771871500,9.16487158203125,-2.5509746074676514,1.099372386932373,0.5334223508834839
1716551994781538300,9.174538330078125,-2.6096158027648926,1.1348015069961548,0.5401417016983032
1716551994791205000,9.184205078125,-2.645045042037964,2.009611129760742,0.4888305068016052
1716551994800871700,9.19387158203125,-2.7250659465789795,1.9356986284255981,0.5328115224838257
1716551994810538500,9.20353857421875,-2.706740617752075,1.2520841360092163,0.6409314870834351
1716551994820205300,9.213205322265624,-1.7268651723861694,0.22463907301425934,0.36910444498062134
1716551994829872000,9.2228720703125,1.2834664583206177,-1.1290748119354248,-0.6559736132621765
1716551994839538700,9.23253857421875,3.8747568130493164,-0.6525375843048096,-1.6229448318481445
1716551994849205500,9.24220556640625,2.422085762023926,0.020005248486995697,-1.2662099599838257
1716551994858872300,9.251872314453125,-0.00916270911693573,-0.4387410581111908,0.3617742955684662
1716551994868539100,9.2615390625,-0.27121618390083313,-0.3312319219112396,1.5865230560302734
1716551994878205700,9.271205810546874,0.2229592502117157,0.0988045409321785,2.0434367656707764
1716551994887872500,9.28087255859375,0.6322268843650818,0.39567631483078003,1.9536422491073608
1716551994897539300,9.290539306640625,0.8583167791366577,0.4622586667537689,1.5767494440078735
1716551994907206100,9.3002060546875,0.8992435336112976,0.4390464723110199,1.223679780960083
1716551994916872700,9.309872802734375,0.8479323387145996,0.3364241421222687,1.0440906286239624
1716551994926539500,9.31953955078125,0.8699228763580322,0.09513945877552032,0.9530744552612305
1716551994936206300,9.329206298828124,1.002476692199707,-0.11560284346342087,0.8657232522964478
1716551994945873200,9.338873046875,1.1380847692489624,-0.2029540091753006,0.7545490860939026
1716551994955539700,9.348539794921875,1.219327449798584,-0.22066856920719147,0.6274928450584412
1716551994965206500,9.35820654296875,1.2358204126358032,-0.21822518110275269,0.5041016936302185
1716551994974873300,9.367873291015625,1.2138298749923706,-0.2029540091753006,0.39109495282173157
1716551994984540200,9.3775400390625,1.1576318740844727,-0.1785201132297516,0.28725093603134155
1716551994994206700,9.387206787109376,1.0653939247131348,-0.1375933438539505,0.2017323076725006
1716551995003873500,9.39687353515625,0.9652150273323059,-0.11438114941120148,0.12354385852813721
1716551995013540400,9.406540283203125,0.8680903315544128,-0.14003673195838928,0.0623827762901783
1716551995023207200,9.416207275390626,0.7813500165939331,-0.18646112084388733,0.036727190017700195
1716551995032873700,9.425873779296875,0.7263737320899963,-0.12293300777673721,0.0880383625626564
1716551995042540500,9.43554052734375,0.6891120672225952,-0.11926792562007904,0.1510319858789444
1716551995052207400,9.445207275390626,0.6236750483512878,-0.6006155610084534,0.04161396995186806
1716551995061874200,9.454874267578125,0.469741553068161,-1.2671263217926025,-0.1593547761440277
1716551995071540700,9.464540771484375,0.20035789906978607,-1.7020494937896729,-0.33894386887550354
1716551995081207600,9.47420751953125,-0.1435490995645523,-1.893244743347168,-0.44523128867149353
1716551995090874400,9.483874267578125,-0.5008947253227234,-1.9011857509613037,-0.46600010991096497
1716551995100541200,9.493541259765625,-0.8423583507537842,-1.8028392791748047,-0.42751672863960266
1716551995110207700,9.503207763671876,-1.1373976469039917,-1.6965519189834595,-0.34810659289360046
1716551995119874600,9.51287451171875,-1.3854016065597534,-1.0294303894042969,-0.1080436110496521
1716551995129541400,9.522541259765624,-1.6676130294799805,1.2142115831375122,0.47294849157333374
1716551995139208200,9.532208251953126,-1.8844637870788574,2.6027438640594482,0.8370134830474854
1716551995148875000,9.541875,-1.988918662071228,2.3742868900299072,0.6714738607406616
1716551995158541600,9.55154150390625,-2.1258249282836914,1.9356986284255981,0.31290650367736816
1716551995168208400,9.56120849609375,-2.2791473865509033,1.725567102432251,-0.06223006546497345
1716551995177875200,9.570875244140625,-1.9211146831512451,1.6223340034484863,-0.2894652485847473
1716551995187541800,9.580541748046874,0.6145123243331909,0.21975229680538177,0.28908345103263855
1716551995197208600,9.59020849609375,4.440401554107666,-2.1058194637298584,0.5706840753555298
1716551995206875400,9.59987548828125,4.628542423248291,-4.272571086883545,-0.03290939703583717
1716551995216542200,9.609542236328124,1.4575579166412354,-5.186398506164551,-0.07689040154218674
1716551995226209000,9.619208984375,-0.17714570462703705,-1.4693167209625244,-0.754930853843689
1716551995235875600,9.62887548828125,-0.32252734899520874,-0.16691401600837708,-1.815361738204956
1716551995245542400,9.63854248046875,-0.09407047927379608,0.030389651656150818,-2.3113696575164795
1716551995255209200,9.648209228515626,0.1844758689403534,0.07009471952915192,-2.4616382122039795
1716551995264875800,9.657875732421875,0.39766156673431396,-0.27625566720962524,-2.4726333618164062
1716551995274542600,9.66754248046875,0.546097457408905,-0.9744541049003601,-2.3174781799316406
1716551995284209400,9.67720947265625,0.6603258848190308,-1.813834547996521,-1.9833446741104126
1716551995293876200,9.686876220703125,0.7404232621192932,-2.3177835941314697,-1.5911808013916016
1716551995303543000,9.69654296875,0.7789065837860107,-2.3263354301452637,-1.2210073471069336
1716551995313209600,9.706209716796875,0.7465317249298096,-2.081996440887451,-0.8447254300117493
1716551995322876400,9.71587646484375,0.6542174220085144,-1.8077261447906494,-0.42996010184288025
1716551995332543200,9.725543212890624,0.5265503525733948,-1.533455729484558,0.031229566782712936
1716551995342209800,9.735209716796875,0.4043808877468109,-1.0782980918884277,0.4784461259841919
1716551995351876600,9.744876708984375,0.34757208824157715,-0.03497100621461868,0.7319477200508118
1716551995361543400,9.75454345703125,0.29626092314720154,1.0248489379882812,0.7087355256080627
1716551995371210200,9.764210205078125,0.19058434665203094,1.5698010921478271,0.5230379700660706
1716551995380876800,9.773876708984375,0.056808795779943466,1.5850722789764404,0.30313295125961304
1716551995390543600,9.783543701171874,-0.06047387793660164,1.2704095840454102,0.07398887723684311
1716551995400210400,9.79321044921875,-0.13560809195041656,0.8690829277038574,-0.16485241055488586
1716551995409877200,9.802877197265625,-0.17775654792785645,0.5044071078300476,-0.39208757877349854
1716551995419543800,9.812543701171874,-0.2095206081867218,0.23563432693481445,-0.5680115818977356
1716551995429210600,9.822210693359375,-0.26632940769195557,0.1385096162557602,-0.6578061580657959
1716551995438877400,9.83187744140625,-0.38849884271621704,0.23929941654205322,-0.6480326056480408
1716551995448544300,9.841544189453124,-0.5925218462944031,0.8098307251930237,-0.5411342978477478
1716551995458210800,9.8512109375,-0.8386932611465454,2.686429977416992,-0.5075377225875854
1716551995467877600,9.860877685546875,-1.058598279953003,4.557531356811523,-0.5417451858520508
1716551995477544400,9.87054443359375,-1.2589561939239502,4.655266761779785,-0.4617241621017456
1716551995487211300,9.880211181640625,-1.4788612127304077,3.195265769958496,-0.28702184557914734
1716551995496877800,9.8898779296875,-1.6627262830734253,1.4445010423660278,-0.20455747842788696
1716551995506544600,9.899544677734376,-1.784895658493042,0.3730749487876892,-0.23509983718395233
1716551995516211500,9.90921142578125,-1.9559329748153687,0.21425467729568481,-0.25770118832588196
1716551995525878000,9.9188779296875,-2.159421443939209,0.6223006248474121,-0.23082390427589417
1716551995535544800,9.928544921875,-2.2021806240081787,1.0841012001037598,-0.014583977870643139
1716551995545211600,9.938211669921875,-0.9529217481613159,0.848924994468689,0.19379130005836487
1716551995554878500,9.94787841796875,2.1899638175964355,-0.16019469499588013,-0.14102935791015625
1716551995564545300,9.957545166015626,3.1007370948791504,-0.673306405544281,-0.8929823637008667
1716551995574211800,9.9672119140625,0.7074374556541443,-0.49493899941444397,-0.7030088305473328
1716551995583878700,9.976878662109375,-0.2516690790653229,0.12873606383800507,0.5847335457801819
1716551995593545500,9.98654541015625,0.1557660549879074,0.241742804646492,1.5382660627365112
1716551995603212000,9.9962119140625,0.4856235682964325,-0.023975754156708717,1.9023311138153076
1716551995612878800,10.00587890625,0.5949652194976807,-0.3171824514865875,1.93104088306427
1716551995622545700,10.015545654296876,0.6536065936088562,-0.3617742955684662,1.7758857011795044
1716551995632212500,10.02521240234375,0.7190435528755188,-0.056961506605148315,1.5639216899871826
1716551995641879000,10.034879150390625,0.7813500165939331,0.2924431264400482,1.362342119216919
1716551995651545900,10.0445458984375,0.877863883972168,0.37796175479888916,1.2071869373321533
1716551995661212700,10.054212646484375,1.006752610206604,0.2515163719654083,1.094791054725647
1716551995670879500,10.06387939453125,1.1203702688217163,0.07864658534526825,0.959793746471405
1716551995680546000,10.073546142578126,1.2199382781982422,-0.012980503961443901,0.798530101776123
1716551995690212900,10.083212890625,1.2779687643051147,-0.06551336497068405,0.6085565686225891
1716551995699879700,10.092879638671874,1.2785797119140625,-0.058183200657367706,0.43568679690361023
1716551995709546200,10.102546142578126,1.219327449798584,-0.009315420873463154,0.2976353168487549
1716551995719213000,10.112213134765625,1.1209810972213745,-0.016645587980747223,0.15469707548618317
1716551995728879900,10.1218798828125,1.0030875205993652,-0.06917845457792282,0.01779092662036419
1716551995738546700,10.131546630859376,0.8784747123718262,-0.1363716572523117,-0.09338327497243881
1716551995748213200,10.141213134765625,0.7703547477722168,-0.17485502362251282,-0.13919681310653687
1716551995757880000,10.150880126953124,0.6964422464370728,-0.25060009956359863,-0.11170869320631027
1716551995767547000,10.160546875,0.6499415040016174,-0.335507869720459,-0.03474193811416626
1716551995777213700,10.170213623046875,0.5625903010368347,-0.5309789776802063,-0.023746687918901443
1716551995786880300,10.17988037109375,0.3970507085323334,-0.8156337738037109,-0.10193513333797455
1716551995796547000,10.189547119140625,0.11972606182098389,-1.0495883226394653,-0.18928629159927368
1716551995806214000,10.1992138671875,-0.29565006494522095,-1.217647671699524,-0.2650313675403595
1716551995815880400,10.20888037109375,-0.8246437907218933,-1.2646828889846802,-0.3053472638130188
1716551995825547300,10.21854736328125,-1.4232741594314575,-1.1101385354995728,-0.2625879645347595
1716551995835214000,10.228214111328125,-2.0329761505126953,-0.7924215793609619,-0.09704835712909698
1716551995844881000,10.237880859375,-2.5344815254211426,0.3083251416683197,0.39231663942337036
1716551995854547500,10.24754736328125,-2.847846269607544,2.1256721019744873,1.3134742975234985
1716551995864214300,10.25721435546875,-2.96696138381958,2.4072725772857666,1.8216992616653442
1716551995873881000,10.266881103515624,-2.98650860786438,1.8465149402618408,1.7001405954360962
1716551995883548000,10.2765478515625,-3.0457608699798584,1.4017417430877686,1.358066201210022
1716551995893214500,10.28621435546875,-3.024381160736084,1.21482253074646,0.9255862832069397
1716551995902881300,10.29588134765625,-1.9602088928222656,1.0663865804672241,0.5370874404907227
1716551995912548000,10.305548095703125,1.5265836715698242,0.4909684956073761,0.23349636793136597
1716551995922215000,10.31521484375,5.193576335906982,-2.028852701187134,0.18768282234668732
1716551995931881500,10.324881591796874,4.258979797363281,-5.901700973510742,0.4020902216434479
1716551995941548300,10.33454833984375,1.1057099103927612,-4.683671474456787,0.039170581847429276
1716551995951215000,10.344215087890625,-0.2907632887363434,0.5795413255691528,-1.1788588762283325
1716551995960881700,10.353881591796876,-0.4453076422214508,0.6210789680480957,-2.0199954509735107
1716551995970548500,10.363548583984375,-0.06963659077882767,0.16111096739768982,-2.1904218196868896
1716551995980215300,10.37321533203125,0.3530697226524353,-0.36482852697372437,-2.1323914527893066
1716551995989882000,10.382882080078126,0.6811710596084595,-0.826018214225769,-2.009611129760742
1716551995999548700,10.392548583984375,0.8815289735794067,-1.1620604991912842,-1.861786127090454
1716551996009215500,10.402215576171875,0.9804862141609192,-1.356920838356018,-1.6821969747543335
1716551996018882300,10.41188232421875,1.0098068714141846,-1.3263784646987915,-1.379827618598938
1716551996028549000,10.421549072265625,0.9658258557319641,-1.1290748119354248,-0.926578938961029
1716551996038215700,10.431215576171875,0.8699228763580322,-0.9836167693138123,-0.3817031681537628
1716551996047882500,10.440882568359376,0.7532510161399841,-1.0752438306808472,0.17057909071445465
1716551996057549300,10.45054931640625,0.6413896083831787,-1.1968787908554077,0.6861341595649719
1716551996067216000,10.4602158203125,0.5711421966552734,-0.6867450475692749,1.047144889831543
1716551996076882700,10.469882568359376,0.5613686442375183,0.8959602117538452,1.0728005170822144
1716551996086549500,10.479549560546875,0.5063923597335815,2.1409432888031006,0.8663341403007507
1716551996096216300,10.48921630859375,0.39643988013267517,2.5141708850860596,0.6189410090446472
1716551996105883000,10.4988828125,0.28160059452056885,2.211190700531006,0.38254308700561523
1716551996115549700,10.5085498046875,0.1844758689403534,1.6876946687698364,0.13270656764507294
1716551996125216500,10.518216552734375,0.12155860662460327,1.209324836730957,-0.11598462611436844
1716551996134883000,10.527883056640626,0.08429691940546036,0.7945595979690552,-0.3468848764896393
1716551996144550000,10.5375498046875,0.05008947476744652,0.5013529062271118,-0.5075377225875854
1716551996154216700,10.547216796875,-0.007941014133393764,0.38040512800216675,-0.5716766715049744
1716551996163883500,10.556883544921876,-0.12644538283348083,0.4659237563610077,-0.5258631110191345
1716551996173550000,10.566550048828125,-0.33413344621658325,0.7853968739509583,-0.33588963747024536
1716551996183217000,10.576216796875,-0.6493306159973145,1.2300937175750732,-0.05123481526970863
1716551996192883700,10.5858837890625,-1.0836430788040161,1.7200695276260376,0.20051060616970062
1716551996202550500,10.595550537109375,-1.5625473260879517,2.6650502681732178,0.4039227366447449
1716551996212217000,10.605217041015624,-1.997470498085022,3.3724112510681152,0.5236487984657288
1716551996221884000,10.6148837890625,-2.3432865142822266,3.2044284343719482,0.5401417016983032
1716551996231550700,10.62455078125,-2.5045502185821533,2.472022533416748,0.49738237261772156
1716551996241217300,10.63421728515625,-2.5460877418518066,1.497033953666687,0.4106420576572418
1716551996250884000,10.643884033203125,-2.5888469219207764,0.6754443645477295,0.39414918422698975
1716551996260551000,10.653551025390625,-2.616335153579712,0.1525591015815735,0.4918847680091858
1716551996270217700,10.6632177734375,-2.370163679122925,-0.11865708231925964,0.5322006940841675
1716551996279884300,10.67288427734375,-0.6310052275657654,-0.5407525300979614,0.30130040645599365
1716551996289551000,10.682551025390625,3.024381160736084,-0.5883986353874207,-0.37559470534324646
1716551996299218000,10.692218017578124,4.397031307220459,-0.1766875684261322,-1.22222900390625
1716551996308884500,10.701884521484375,1.1808440685272217,-0.39048412442207336,-0.9094752073287964
1716551996318551300,10.71155126953125,-0.8160919547080994,-0.362995982170105,0.3507790267467499
1716551996328218000,10.721218017578124,-0.37444937229156494,-0.04291202127933502,1.1809204816818237
1716551996337885000,10.730885009765625,0.3683409094810486,0.02489202655851841,1.4051014184951782
1716551996347551500,10.740551513671875,0.8253310322761536,-0.1516428291797638,1.3085875511169434
1716551996357218300,10.75021826171875,0.9768211245536804,-0.3190149664878845,1.1338852643966675
1716551996366885000,10.759885009765625,0.8894699811935425,-0.2927485406398773,0.9958337545394897
1716551996376552000,10.769552001953125,0.8644252419471741,-0.14431266486644745,0.9200887084007263
1716551996386218500,10.779218505859374,1.006752610206604,-0.12293300777673721,0.8571714162826538
1716551996395885300,10.78888525390625,1.17473566532135,-0.15347537398338318,0.8278507590293884
1716551996405552000,10.79855224609375,1.294461727142334,-0.1369825005531311,0.8217422962188721
1716551996415218700,10.80821875,1.3427186012268066,-0.10766182839870453,0.783869743347168
1716551996424885500,10.817885498046875,1.3243932723999023,-0.09116895496845245,0.6989619731903076
1716551996434552300,10.82755224609375,1.2651410102844238,-0.07589777559041977,0.5822901725769043
1716551996444219100,10.83721923828125,1.1881742477416992,-0.05512896552681923,0.4619532525539398
1716551996453885700,10.8468857421875,1.1020448207855225,-0.03008422814309597,0.35138988494873047
1716551996463552500,10.856552490234375,1.0208021402359009,-0.031916771084070206,0.2426590770483017
1716551996473219300,10.86621923828125,0.9462787508964539,-0.11743538826704025,0.13576079905033112
1716551996482886000,10.875885986328125,0.8766421675682068,-0.2927485406398773,0.0745997205376625
1716551996492552700,10.885552734375,0.8424347043037415,-0.5786250829696655,0.14431266486644745
1716551996502219500,10.895219482421876,0.8589276075363159,-0.8119687438011169,0.3379512429237366
1716551996511886300,10.90488623046875,0.8381587862968445,-0.7319477200508118,0.40636613965034485
1716551996521553000,10.914552978515625,0.6652126908302307,-0.5364766120910645,0.2591519355773926
1716551996531219700,10.9242197265625,0.3762819170951843,-0.755770742893219,-0.011529741808772087
1716551996540886500,10.933886474609375,0.02504473738372326,-1.1174687147140503,-0.2387649267911911
1716551996550553300,10.94355322265625,-0.37567105889320374,-1.3593642711639404,-0.4079696238040924
1716551996560220000,10.953219970703126,-0.7598940134048462,-1.514519453048706,-0.5411342978477478
1716551996569886700,10.96288671875,-1.1190721988677979,-1.5817126035690308,-0.5967214107513428
1716551996579553500,10.972553466796874,-1.4861913919448853,-1.4558781385421753,-0.5417451858520508
1716551996589220000,10.98222021484375,-1.789171576499939,-1.0489774942398071,-0.40063944458961487
1716551996598887000,10.991886962890625,-2.014650583267212,-0.36482852697372437,-0.16607409715652466
1716551996608553700,11.0015537109375,-2.274871587753296,0.7994463443756104,0.25976279377937317
1716551996618220500,11.011220458984376,-2.4758403301239014,1.930811882019043,0.6855233311653137
1716551996627887000,11.02088720703125,-2.1349875926971436,2.578310012817383,1.042868971824646
1716551996637554000,11.030553955078124,-0.20280128717422485,2.1201744079589844,1.4735163450241089
1716551996647220700,11.040220703125,3.0488150119781494,0.6497887969017029,1.139993667602539
1716551996656887300,11.04988720703125,3.6035406589508057,-2.5279150009155273,0.2286095917224884
1716551996666554000,11.05955419921875,0.09712471067905426,-6.360446929931641,-0.012140588834881783
1716551996676221000,11.069220947265626,-1.0005677938461304,-3.8889591693878174,0.43446511030197144
1716551996685887500,11.078887451171875,-0.011606098152697086,0.8641961812973022,-0.5050943493843079
1716551996695554300,11.08855419921875,0.4947862923145294,0.7597413063049316,-1.5985108613967896
1716551996705221000,11.09822119140625,0.6279509663581848,0.266176700592041,-2.1873676776885986
1716551996714888000,11.107887939453125,0.6084038615226746,-0.19684553146362305,-2.3504638671875
1716551996724554500,11.117554443359374,0.5436540842056274,-0.8290724158287048,-2.286324977874756
1716551996734221300,11.12722119140625,0.5002838969230652,-1.5132976770401,-2.1311697959899902
1716551996743888100,11.13688818359375,0.5076140761375427,-1.8584264516830444,-1.8990477323532104
1716551996753555000,11.146554931640624,0.5369347333908081,-1.8083369731903076,-1.5979000329971313
1716551996763221500,11.156221435546875,0.5601469278335571,-1.5756042003631592,-1.2344459295272827
1716551996772888300,11.165888427734375,0.5858024954795837,-1.276899814605713,-0.7763105034828186
1716551996782555100,11.17555517578125,0.5748072862625122,-0.9695672988891602,-0.24731677770614624
1716551996792221700,11.1852216796875,0.5515950918197632,-0.40453359484672546,0.17424418032169342
1716551996801888500,11.194888427734375,0.5393781065940857,0.8385405540466309,0.28786176443099976
1716551996811555300,11.204555419921874,0.47951510548591614,1.813529133796692,0.22005772590637207
1716551996821222100,11.21422216796875,0.37689274549484253,2.057868003845215,0.12904147803783417
1716551996830888700,11.223888671875,0.2870981991291046,1.8880524635314941,0.028786176815629005
1716551996840555500,11.233555419921874,0.21440738439559937,1.583850622177124,-0.08360971510410309
1716551996850222300,11.243222412109375,0.1582094430923462,1.2386455535888672,-0.21616357564926147
1716551996859889000,11.252888916015625,0.12522368133068085,0.8782456517219543,-0.37681639194488525
1716551996869555700,11.2625556640625,0.0781884491443634,0.6369609832763672,-0.48127129673957825
1716551996879222500,11.272222412109375,-0.007941014133393764,0.5361711978912354,-0.48371466994285583
1716551996888889300,11.281889404296875,-0.15454435348510742,0.6045860648155212,-0.36459946632385254
1716551996898556000,11.291555908203126,-0.41293275356292725,0.9191724061965942,-0.0952158197760582
1716551996908222700,11.30122265625,-0.8270871639251709,1.2942326068878174,0.2677038013935089
1716551996917889500,11.3108896484375,-1.4330476522445679,1.82391357421875,0.7221741676330566
1716551996927556000,11.32055615234375,-2.095893383026123,2.5147817134857178,1.1784770488739014
1716551996937223000,11.330222900390625,-2.6933019161224365,2.7133071422576904,1.394106149673462
1716551996946889700,11.3398896484375,-3.0836334228515625,2.3223648071289062,1.3592878580093384
1716551996956556300,11.349556396484376,-3.1764822006225586,1.7506119012832642,1.1748119592666626
1716551996966223000,11.35922314453125,-3.1416637897491455,1.2038272619247437,0.90909343957901
1716551996975890000,11.368889892578125,-3.1129539012908936,0.7646280527114868,0.5609105229377747
1716551996985556700,11.378556640625,-3.1471614837646484,0.5697677731513977,0.20967331528663635
1716551996995223300,11.388223388671875,-3.134944438934326,0.5013529062271118,-0.13858596980571747
1716551997004890000,11.39789013671875,-2.3432865142822266,0.22647161781787872,-0.5912237763404846
1716551997014557000,11.407556884765626,0.5143333673477173,-0.462564080953598,-1.3602805137634277
1716551997024223500,11.417223388671875,4.478273868560791,-0.6024481058120728,-2.371232748031616
1716551997033890300,11.426890380859374,4.6822967529296875,-0.5322006940841675,-2.4439234733581543
1716551997043557000,11.43655712890625,1.0739458799362183,-1.4699275493621826,-1.2197855710983276
1716551997053224000,11.446223876953125,-0.6951441764831543,-1.142513394355774,0.19379130005836487
1716551997062890500,11.455890380859374,-0.49173203110694885,-0.45828816294670105,0.9164236187934875
1716551997072557300,11.465557373046876,0.09407047927379608,-0.27503398060798645,1.0960127115249634
1716551997082224000,11.47522412109375,0.605960488319397,-0.49799323081970215,1.042868971824646
1716551997091891000,11.484890869140624,0.8619818091392517,-0.728282630443573,0.9860602021217346
1716551997101557500,11.4945576171875,0.8644252419471741,-0.7398887276649475,1.0477557182312012
1716551997111224300,11.504224365234375,0.8369371294975281,-0.5853443741798401,1.164427638053894
1716551997120891100,11.51389111328125,0.8974109888076782,-0.4405735731124878,1.213906168937683
1716551997130557700,11.5235576171875,1.0043092966079712,-0.33856210112571716,1.1735903024673462
1716551997140224500,11.533224609375,1.1160943508148193,-0.2536543309688568,1.0886825323104858
1716551997149891300,11.542891357421874,1.2040562629699707,-0.17241163551807404,0.9970554113388062
1716551997159558100,11.55255810546875,1.2694169282913208,-0.10399674624204636,0.9066500663757324
1716551997169224700,11.562224609375,1.309122085571289,-0.03497100621461868,0.8266290426254272
1716551997178891500,11.5718916015625,1.3243932723999023,0.029778804630041122,0.7539382576942444
1716551997188558300,11.581558349609375,1.3213390111923218,0.07437065243721008,0.6806365847587585
1716551997198225000,11.591224853515625,1.303013563156128,0.0713164210319519,0.6000047326087952
1716551997207891700,11.6008916015625,1.2730820178985596,0.02733541466295719,0.515707790851593
1716551997217558500,11.61055859375,1.2498698234558105,0.0847550556063652,0.4411844313144684
1716551997227225000,11.62022509765625,1.24681556224823,0.31504446268081665,0.3489464819431305
1716551997236892000,11.629891845703124,1.2736928462982178,0.4421007037162781,0.20661908388137817
1716551997246558700,11.639558837890625,1.2993484735488892,0.20020519196987152,-0.015194825828075409
1716551997256225500,11.6492255859375,1.2431504726409912,-0.23960483074188232,-0.3426089584827423
1716551997265892000,11.65889208984375,1.0513445138931274,-0.6946860551834106,-0.6474217176437378
1716551997275559000,11.668558837890625,0.8002862930297852,-1.0459232330322266,-0.8367843627929688
1716551997285225700,11.678225830078125,0.5008947253227234,-1.2335296869277954,-0.926578938961029
1716551997294892300,11.687892333984376,0.1692046970129013,-1.2738455533981323,-0.9174162149429321
1716551997304559000,11.69755908203125,-0.17286977171897888,-1.1632822751998901,-0.8160156011581421
1716551997314226000,11.707225830078125,-0.5632011890411377,-0.5181511640548706,-0.5276956558227539
1716551997323892700,11.716892822265624,-1.0091196298599243,0.9381086826324463,0.03245126083493233
1716551997333559300,11.726559326171875,-1.3426423072814941,1.5538426637649536,0.31290650367736816
1716551997343226000,11.73622607421875,-1.6022523641586304,1.375475287437439,0.16630317270755768
1716551997352893000,11.745892822265626,-1.8972915410995483,1.2594143152236938,-0.0420721061527729
1716551997362559500,11.7555595703125,-2.1172728538513184,1.3699777126312256,-0.15691138803958893
1716551997372226300,11.765226318359375,-1.1624423265457153,1.1745065450668335,0.14492350816726685
1716551997381893000,11.77489306640625,1.6609700918197632,-0.47355934977531433,0.5615213513374329
1716551997391560000,11.784559814453125,2.807530403137207,-2.767367124557495,0.03184041380882263
1716551997401226500,11.7942265625,-0.44042086601257324,-5.477161884307861,-0.10315682739019394
1716551997410893300,11.803893310546876,-0.869846522808075,-4.287842273712158,0.5462501645088196
1716551997420560100,11.81356005859375,0.4049917459487915,-0.282364159822464,0.1779092699289322
1716551997430227000,11.82322705078125,0.8100598454475403,0.39506545662879944,-0.6975111961364746
1716551997439893500,11.8328935546875,0.6212316751480103,-0.24510246515274048,-1.2295591831207275
1716551997449560300,11.842560302734375,0.45202696323394775,-1.1235771179199219,-1.3627238273620605
1716551997459227100,11.85222705078125,0.5167768001556396,-1.929284691810608,-1.3053042888641357
1716551997468893700,11.861893798828126,0.7618029117584229,-2.2279889583587646,-1.2674317359924316
1716551997478560500,11.871560546875,0.9713234901428223,-1.560333013534546,-1.2924764156341553
1716551997488227300,11.881227294921874,0.9762102961540222,-0.06795676052570343,-1.3315706253051758
1716551997497894000,11.890893798828126,0.7208760976791382,0.7224795818328857,-1.2069578170776367
1716551997507560700,11.900560791015625,0.46546560525894165,0.8855758309364319,-0.9271897673606873
1716551997517227500,11.9102275390625,0.33230090141296387,1.1152544021606445,-0.6358156204223633
1716551997526894300,11.919894287109376,0.2638860046863556,1.423121452331543,-0.41591063141822815
1716551997536561000,11.929560791015625,0.20646637678146362,1.6400485038757324,-0.25831204652786255
1716551997546227700,11.939227783203124,0.13866232335567474,1.6925814151763916,-0.17584764957427979
1716551997555894500,11.94889453125,0.06413896381855011,1.6119495630264282,-0.1611873209476471
1716551997565561000,11.95856103515625,-0.01588202826678753,1.4860386848449707,-0.17096087336540222
1716551997575228000,11.968227783203124,-0.11300674080848694,1.3198882341384888,-0.20822255313396454
1716551997584894700,11.977894775390626,-0.22540263831615448,1.0944855213165283,-0.2662530541419983
1716551997594561300,11.987561279296875,-0.4056025743484497,0.899625301361084,-0.21738526225090027
1716551997604228000,11.99722802734375,-0.7403468489646912,0.7713474035263062,0.12781979143619537
1716551997613895000,12.00689501953125,-1.2143644094467163,0.6607840061187744,0.6824691295623779
1716551997623561700,12.016561767578125,-1.8026102781295776,0.45981526374816895,1.0923476219177246
