time,seconds_elapsed,z,y,x
1716551985704411100,0.0974111328125,0,0,0
1716551985714078000,0.107077880859375,0.07983207702636719,0.011482596397399902,-0.01066511869430542
1716551985723744800,0.116744873046875,0.33918190002441406,-0.05125504732131958,0.08940392732620239
1716551985733411800,0.126411865234375,0.2043447494506836,-0.09549474716186523,0.30580127239227295
1716551985743078700,0.13607861328125,-0.3324728012084961,-0.029797911643981934,0.12170267105102539
1716551985752745500,0.145745361328125,-0.9606056213378906,0.012156099081039429,0.19048500061035156
1716551985762412300,0.155412353515625,-0.9996528625488281,0.05882900953292847,0.1657179594039917
1716551985772079000,0.1650791015625,-1.035726547241211,0.18559372425079346,0.1675095558166504
1716551985781746000,0.174745849609375,-1.3548450469970703,0.31070756912231445,0.17300939559936523
1716551985791412700,0.184412841796875,-1.4364347457885742,0.3578181266784668,0.06182718276977539
1716551985801079600,0.19407958984375,-1.2679729461669922,0.27633804082870483,0.0736544132232666
1716551985810746400,0.203746337890625,-0.4756507873535156,-0.10189172625541687,1.0296114683151245
1716551985820413400,0.213413330078125,-0.036380767822265625,-0.2561589777469635,1.3490030765533447
1716551985830080300,0.223080322265625,0.08018016815185547,-0.15227966010570526,1.4206790924072266
1716551985839747000,0.2327470703125,0.25522613525390625,0.1507035493850708,1.2315289974212646
1716551985849414000,0.242413818359375,0.3252143859863281,0.33078283071517944,0.9263975620269775
1716551985859080700,0.252080810546875,0.23072433471679688,0.32339441776275635,0.3065652847290039
1716551985868747500,0.26174755859375,-0.08427715301513672,1.1421520709991455,-1.7744765281677246
1716551985878414300,0.271414306640625,-0.2143726348876953,1.7417653799057007,-2.7986395359039307
1716551985888081200,0.2810810546875,0.12223529815673828,0.9006427526473999,-2.1031177043914795
1716551985897748000,0.290748046875,0.9717721939086914,-0.10622820258140564,-0.7827924489974976
1716551985907414800,0.300414794921875,1.8265371322631836,-0.17343828082084656,0.055490970611572266
1716551985917081600,0.31008154296875,2.689957618713379,0.1910979151725769,0.5465875864028931
1716551985926748700,0.319748779296875,2.8654003143310547,0.6437922120094299,0.622583270072937
1716551985936415500,0.32941552734375,2.473017692565918,0.5560349225997925,0.6280020475387573
1716551985946082300,0.339082275390625,1.7910118103027344,0.1863761842250824,0.6148542165756226
1716551985955749000,0.3487490234375,1.4555931091308594,-0.01187121868133545,0.34432995319366455
1716551985965416000,0.358416015625,1.2483301162719727,0.21119701862335205,-0.06464433670043945
1716551985975082800,0.368082763671875,1.0675668716430664,0.42743390798568726,-0.3819371461868286
1716551985984749600,0.37774951171875,1.4055871963500977,0.6795740127563477,-0.4555385112762451
1716551985994416400,0.38741650390625,1.5263071060180664,0.6233845353126526,-0.39945828914642334
1716551986004083200,0.397083251953125,1.271458625793457,0.7272253036499023,-0.21473932266235352
1716551986013750300,0.406750244140625,1.1294260025024414,0.6424654722213745,0.30741310119628906
1716551986023417000,0.4164169921875,0.960118293762207,0.17592307925224304,0.8669712543487549
1716551986033084000,0.426083984375,0.6467666625976562,-0.43010348081588745,1.2836827039718628
1716551986042750700,0.435750732421875,0.053589820861816406,-0.7265943884849548,1.3550381660461426
1716551986052417500,0.44541748046875,-0.43790149688720703,-1.004796028137207,1.2572910785675049
1716551986062084400,0.45508447265625,-0.8451805114746094,-1.1158883571624756,1.1915392875671387
1716551986071751200,0.464751220703125,-1.3511056900024414,-1.0599753856658936,1.4341764450073242
1716551986081418000,0.47441796875,-1.8671302795410156,-1.0719902515411377,1.7909600734710693
1716551986091084800,0.484084716796875,-2.324275493621826,-1.3793389797210693,2.059725761413574
1716551986100751600,0.493751708984375,-2.2345170974731445,-1.3582428693771362,1.9031126499176025
1716551986110418400,0.50341845703125,-2.02187442779541,-1.45136296749115,1.903832197189331
1716551986120085200,0.513085205078125,-1.8227458000183105,-1.391279697418213,1.8071424961090088
1716551986129752300,0.52275244140625,-1.2478628158569336,-0.8628551363945007,1.2460734844207764
1716551986139419100,0.532419189453125,-0.4836883544921875,-0.6104005575180054,1.3101093769073486
1716551986149086000,0.5420859375,-0.12593841552734375,-0.39289218187332153,0.8530819416046143
1716551986158752800,0.551752685546875,0.007504463195800781,-0.24525153636932373,1.0060536861419678
1716551986168419600,0.561419677734375,0.08199310302734375,-0.17176413536071777,1.2587077617645264
1716551986178086400,0.57108642578125,0.010341644287109375,-0.10049128532409668,1.4914591312408447
1716551986187753200,0.580753173828125,-0.2522592544555664,-0.07366812229156494,1.5407445430755615
1716551986197420000,0.590419921875,-0.45633506774902344,-0.24017655849456787,1.4408226013183594
1716551986207086800,0.6000869140625,-0.6009750366210938,-0.4766108989715576,1.4753880500793457
1716551986216754000,0.60975390625,-0.23538494110107422,-0.6636660099029541,1.582348108291626
1716551986226420700,0.619420654296875,0.08246612548828125,-1.0557947158813477,1.549067735671997
1716551986236087600,0.629087646484375,0.5079307556152344,-1.8494138717651367,1.6854825019836426
1716551986245754400,0.63875439453125,0.5326061248779297,-2.228783369064331,1.623795747756958
1716551986255421200,0.648421142578125,-0.03310680389404297,-2.49733304977417,1.4144134521484375
1716551986265088000,0.658087890625,-0.3169879913330078,-2.469207286834717,1.8028793334960938
1716551986274754800,0.6677548828125,-1.333395004272461,-2.464860439300537,1.4066112041473389
1716551986284421600,0.677421630859375,-2.1631736755371094,-1.9886600971221924,1.522254228591919
1716551986294088400,0.68708837890625,-2.4748778343200684,-1.447951078414917,1.2859556674957275
1716551986303755300,0.69675537109375,-2.275421142578125,-1.0275824069976807,0.9749717712402344
1716551986313422000,0.706422119140625,-1.8077497482299805,-0.9795870780944824,0.23151540756225586
1716551986323089000,0.7160888671875,-1.1203889846801758,-1.5077126026153564,-0.36716246604919434
1716551986332755700,0.725755615234375,-0.024643898010253906,-2.3979551792144775,-0.46007657051086426
1716551986342422500,0.735422607421875,0.8439502716064453,-2.9964816570281982,-0.36890459060668945
1716551986352089600,0.745089599609375,1.4453763961791992,-3.5202739238739014,-0.7601375579833984
1716551986361756400,0.75475634765625,1.8525466918945312,-3.690427780151367,-1.4348788261413574
1716551986371423200,0.76442333984375,1.956712245941162,-3.7169413566589355,-1.7501373291015625
1716551986381090000,0.774090087890625,1.3089423179626465,-4.274271011352539,-0.8325643539428711
1716551986390756900,0.7837568359375,1.1327033042907715,-4.784490585327148,-1.1202912330627441
1716551986400423700,0.793423583984375,0.6411457061767578,-4.301094055175781,-2.5829966068267822
1716551986410090500,0.803090576171875,0.48766088485717773,-3.0006752014160156,-4.127037525177002
1716551986419757300,0.81275732421875,0.44126081466674805,-3.16672945022583,-3.8144116401672363
1716551986429424000,0.822424072265625,1.2808804512023926,-3.609496593475342,-3.286879301071167
1716551986439091000,0.832091064453125,1.6510396003723145,-3.49515438079834,-3.156136989593506
1716551986448757800,0.8417578125,2.0647668838500977,-2.7259316444396973,-3.420179843902588
1716551986458424800,0.8514248046875,2.912189483642578,-1.8523693084716797,-3.1755752563476562
1716551986468091600,0.861091552734375,4.701130390167236,-1.063748836517334,-2.3490872383117676
1716551986477758500,0.870758544921875,6.103790283203125,-0.6092109680175781,-1.1103472709655762
1716551986487425300,0.88042529296875,6.516416072845459,-0.10612201690673828,0.23233461380004883
1716551986497092000,0.890092041015625,5.987730503082275,0.9229869842529297,1.6544532775878906
1716551986506759000,0.899759033203125,4.138784408569336,2.332123279571533,3.2439422607421875
1716551986516425700,0.90942578125,1.939913272857666,3.9129037857055664,4.744016170501709
1716551986526092500,0.919092529296875,-0.3646724224090576,5.521773815155029,6.209972858428955
1716551986535759400,0.92875927734375,-2.4450337886810303,7.11182165145874,7.551631450653076
1716551986545426200,0.93842626953125,-3.8728394508361816,8.527985572814941,8.636615753173828
1716551986555093000,0.948093017578125,-4.4393229484558105,9.832805633544922,9.204057693481445
1716551986564759800,0.957759765625,-4.6142401695251465,10.633644104003906,9.182940483093262
1716551986574427000,0.967427001953125,-5.524297714233398,10.970051765441895,8.458016395568848
1716551986584093700,0.97709375,-6.450078964233398,10.69601821899414,7.251251220703125
1716551986593760500,0.986760498046875,-7.071537971496582,9.974868774414062,5.712384223937988
1716551986603427300,0.99642724609375,-6.927764892578125,9.136726379394531,4.044466972351074
1716551986613094100,1.00609423828125,-6.30766487121582,8.119417190551758,2.531423568725586
1716551986622761000,1.015760986328125,-4.605030059814453,7.363613605499268,1.394491195678711
1716551986632427800,1.025427734375,-3.159862756729126,6.303284645080566,0.8110647201538086
1716551986642094600,1.035094482421875,-1.9418232440948486,5.0280656814575195,0.5621614456176758
1716551986651761400,1.044761474609375,-1.176281452178955,3.921936511993408,0.5909976959228516
1716551986661428200,1.05442822265625,-1.194653034210205,2.886878728866577,0.5468626022338867
1716551986671095000,1.064094970703125,-1.9081063270568848,1.3537158966064453,-0.21051979064941406
1716551986680761900,1.073761962890625,-5.189775466918945,-1.1918129920959473,-1.7733230590820312
1716551986690429000,1.083428955078125,-11.484251976013184,-3.2729859352111816,-3.3716864585876465
1716551986700095700,1.093095703125,-12.47588062286377,-3.119486093521118,-4.127078056335449
1716551986709762600,1.102762451171875,-9.144410133361816,-2.6118619441986084,-3.1047024726867676
1716551986719429400,1.112429443359375,-5.474940299987793,-2.7670576572418213,-1.2473516464233398
1716551986729096200,1.12209619140625,-1.029340147972107,-3.151567220687866,-1.1955833435058594
1716551986738763000,1.131762939453125,0.7964876294136047,-4.334615230560303,-2.2196054458618164
1716551986748429800,1.141429931640625,1.537382960319519,-3.083294153213501,-2.9035305976867676
1716551986758096600,1.1510966796875,2.422273874282837,-3.328289270401001,-3.5670838356018066
1716551986767763500,1.160763427734375,3.149085283279419,-2.6065735816955566,-3.60068941116333
1716551986777430300,1.17043017578125,2.9113407135009766,-1.6255929470062256,-2.806241512298584
1716551986787097000,1.18009716796875,1.6338549852371216,-0.4242973327636719,-2.217823028564453
1716551986796764000,1.189763916015625,0.7844552993774414,-0.24469470977783203,-0.9724636077880859
1716551986806430700,1.1994306640625,-0.4667574167251587,-0.6099839210510254,0.9001102447509766
1716551986816097500,1.20909765625,-1.1781880855560303,-0.8662807941436768,2.57999324798584
1716551986825764400,1.218764404296875,-1.8940702676773071,-0.9422407150268555,3.680431365966797
1716551986835431400,1.228431396484375,-1.7069967985153198,-0.6536421775817871,4.031487464904785
1716551986845098200,1.23809814453125,-0.7320817112922668,-0.579951286315918,3.7624616622924805
1716551986854765000,1.24776513671875,0.3734862208366394,-0.9557838439941406,2.894740104675293
1716551986864431900,1.257431884765625,1.3321821689605713,-1.366157054901123,2.090275764465332
1716551986874098700,1.2670986328125,1.490332007408142,-0.9134559631347656,1.0593175888061523
1716551986883765500,1.276765625,0.4590163230895996,-0.2826976776123047,-0.08029460906982422
1716551986893432300,1.286432373046875,-0.8470142483711243,0.38269805908203125,-1.0356664657592773
1716551986903099100,1.29609912109375,-0.6846538186073303,1.2913589477539062,-1.8972673416137695
1716551986912766000,1.305765869140625,-0.42578601837158203,0.7189793586730957,-2.80661678314209
1716551986922432800,1.315432861328125,-0.4927978515625,0.3969402313232422,-3.4384679794311523
1716551986932099600,1.325099609375,-1.7525800466537476,-0.36966657638549805,-3.093472957611084
1716551986941766400,1.334766357421875,-2.815011978149414,-1.4803218841552734,-1.9699149131774902
1716551986951433200,1.34443310546875,-1.6772346496582031,-1.8718538284301758,-0.5421066284179688
1716551986961100000,1.35410009765625,-1.074977993965149,-1.7710819244384766,0.8624897003173828
1716551986970767000,1.36376708984375,-0.4837731122970581,-0.7524590492248535,1.091722011566162
1716551986980434000,1.373433837890625,-0.5047873258590698,-0.3718128204345703,1.0758771896362305
1716551986990100700,1.383100830078125,-0.5954272747039795,-0.1679062843322754,0.5048670768737793
1716551986999767600,1.392767578125,-0.43563371896743774,-0.28193235397338867,-0.19269704818725586
1716551987009434400,1.402434326171875,0.13005471229553223,-0.355806827545166,-0.7354702949523926
1716551987019101200,1.41210107421875,0.5655354261398315,-0.28972768783569336,-1.0736188888549805
1716551987028768000,1.42176806640625,0.5688781142234802,0.07246541976928711,-1.1941323280334473
1716551987038434800,1.431434814453125,0.19380652904510498,0.005714893341064453,-1.262801170349121
1716551987048101600,1.4411015625,-0.4146205186843872,-0.10550880432128906,-1.4013643264770508
1716551987057768400,1.4507685546875,-0.9088529348373413,-0.1774578094482422,-1.2114639282226562
1716551987067435300,1.460435302734375,-0.9959286451339722,-0.3288393020629883,-0.7079968452453613
1716551987077102000,1.47010205078125,-0.7510522603988647,-0.18503618240356445,-0.5130691528320312
1716551987086769000,1.479768798828125,-0.36819326877593994,-0.4835786819458008,-0.3205728530883789
1716551987096435700,1.489435791015625,-0.04329800605773926,-0.7645416259765625,-0.21008586883544922
1716551987106102500,1.4991025390625,0.1554889678955078,-1.0796489715576172,-0.06096220016479492
1716551987115769300,1.508769287109375,0.20428776741027832,-1.552319049835205,0.0859217643737793
1716551987125436200,1.518436279296875,-0.011668801307678223,-2.1964211463928223,0.0960383415222168
1716551987135103000,1.52810302734375,-0.3719557523727417,-3.1859707832336426,0.21495580673217773
1716551987144769800,1.537769775390625,-0.7313976287841797,-3.5945448875427246,0.16229915618896484
1716551987154436900,1.547436767578125,-1.1616663932800293,-3.467337131500244,0.1939835548400879
1716551987164103700,1.557103759765625,-1.2628846168518066,-3.0520501136779785,0.1730804443359375
1716551987173770500,1.5667705078125,-1.0407923460006714,-2.4727230072021484,0.0073719024658203125
1716551987183437300,1.576437255859375,-0.6349859237670898,-1.9237189292907715,-0.09087324142456055
1716551987193104100,1.586104248046875,-0.43421614170074463,-1.496175765991211,-0.11444377899169922
1716551987202771000,1.59577099609375,-0.2938724756240845,-1.1183867454528809,0.04576253890991211
1716551987212437800,1.605437744140625,-0.2567782402038574,-0.7282023429870605,0.40029001235961914
1716551987222104600,1.6151044921875,-0.1683589220046997,-0.23096084594726562,0.7147197723388672
1716551987231771400,1.624771484375,0.012180924415588379,0.2849154472351074,0.7645630836486816
1716551987241438200,1.634438232421875,-0.0032553672790527344,0.5263490676879883,0.8413691520690918
1716551987251105000,1.64410498046875,0.017953038215637207,0.6447792053222656,0.9275393486022949
1716551987260771800,1.653771728515625,-0.03334510326385498,0.6879715919494629,1.0287694931030273
1716551987270438700,1.663438720703125,0.001050114631652832,0.7400856018066406,0.8784732818603516
1716551987280105500,1.67310546875,0.01842641830444336,0.9779095649719238,0.764763355255127
1716551987289772300,1.682772216796875,-0.08586454391479492,0.8793563842773438,0.7201380729675293
1716551987299439000,1.692439208984375,-0.0659947395324707,1.0986089706420898,0.6808948516845703
1716551987309106000,1.70210595703125,-0.15967333316802979,0.9454421997070312,0.5513410568237305
1716551987318772700,1.711772705078125,-0.22448885440826416,0.9471964836120605,0.574059009552002
1716551987328439800,1.721439697265625,-0.24304485321044922,0.9094409942626953,0.5189085006713867
1716551987338106600,1.731106689453125,-0.2406759262084961,0.8797483444213867,0.5719485282897949
1716551987347773400,1.7407734375,-0.23434996604919434,0.8031625747680664,0.6584286689758301
1716551987357440300,1.750440185546875,-0.2983386516571045,0.7792015075683594,0.7126665115356445
1716551987367107000,1.760107177734375,-0.33062219619750977,0.792630672454834,0.8216919898986816
1716551987376774000,1.76977392578125,-0.3487664461135864,0.7118782997131348,0.8438286781311035
1716551987386440700,1.779440673828125,-0.2657809257507324,0.5425176620483398,0.7819881439208984
1716551987396107500,1.789107421875,-0.16806674003601074,0.47186756134033203,0.6668109893798828
1716551987405774300,1.7987744140625,-0.05113387107849121,0.5558633804321289,0.5653257369995117
1716551987415441200,1.808441162109375,0.03092658519744873,0.685420036315918,0.4129066467285156
1716551987425108000,1.81810791015625,0.01564919948577881,0.35885143280029297,0.39789438247680664
1716551987434774800,1.82777490234375,-0.05952334403991699,0.1846623420715332,0.3985023498535156
1716551987444441600,1.837441650390625,-0.15175390243530273,0.1599135398864746,0.38641786575317383
1716551987454108400,1.8471083984375,-0.2656257152557373,0.16086339950561523,0.3463892936706543
1716551987463775200,1.856775146484375,-0.312039852142334,0.12797212600708008,0.2600111961364746
1716551987473442000,1.866442138671875,-0.25415170192718506,0.06822013854980469,0.21324586868286133
1716551987483108900,1.87610888671875,-0.25497400760650635,0.11286258697509766,0.17499017715454102
1716551987492775700,1.885775634765625,-0.29760122299194336,0.3744029998779297,-0.07938766479492188
1716551987502442500,1.8954423828125,-0.4431881904602051,0.39051342010498047,-0.17597389221191406
1716551987512109300,1.905109375,-0.658339262008667,0.5084776878356934,-0.26889562606811523
1716551987521776000,1.914776123046875,-0.690028190612793,0.6260948181152344,-0.24857759475708008
1716551987531443200,1.924443115234375,-0.7053667306900024,0.8899402618408203,-0.2211589813232422
1716551987541110000,1.934110107421875,-0.6810685396194458,1.1709203720092773,-0.3626832962036133
1716551987550776800,1.94377685546875,-0.6064484119415283,1.3235406875610352,-0.5430970191955566
1716551987560443600,1.953443603515625,-0.465242862701416,1.337674617767334,-0.7101402282714844
1716551987570110500,1.9631103515625,-0.2883530855178833,1.0761432647705078,-0.8967576026916504
1716551987579777300,1.97277734375,-0.06251585483551025,0.8406057357788086,-1.0816168785095215
1716551987589444000,1.982444091796875,0.028211116790771484,0.6101679801940918,-1.199979305267334
1716551987599111000,1.99211083984375,0.024807453155517578,0.5448737144470215,-1.182915210723877
1716551987608777700,2.00177783203125,-0.0746757984161377,0.6283583641052246,-1.103773593902588
1716551987618444500,2.011444580078125,-0.3876100778579712,1.053452968597412,-1.0519733428955078
1716551987628111400,2.021111328125,-0.6164489984512329,1.2326717376708984,-1.090813398361206
1716551987637778200,2.030778076171875,-0.5906496047973633,1.371598243713379,-1.2284417152404785
1716551987647445000,2.040445068359375,-0.3386276960372925,1.2013874053955078,-1.2417552471160889
1716551987657111800,2.05011181640625,-0.12996625900268555,0.8567070960998535,-1.1776769161224365
1716551987666778600,2.059778564453125,0.14576268196105957,0.4795970916748047,-0.9507322311401367
1716551987676445400,2.069445556640625,0.270294189453125,0.13816165924072266,-0.6511106491088867
1716551987686112300,2.0791123046875,0.016179800033569336,-0.48413848876953125,-0.37172985076904297
1716551987695779000,2.088779052734375,-0.3095959424972534,-0.8226871490478516,0.07761383056640625
1716551987705446000,2.09844580078125,-0.49151504039764404,-0.6122684478759766,0.7128798961639404
1716551987715112700,2.10811279296875,-0.42511558532714844,-0.297210693359375,0.9460704326629639
1716551987724779500,2.117779541015625,-0.3506319522857666,-0.14428424835205078,0.9668135643005371
1716551987734446300,2.1274462890625,-0.2108854055404663,0.09658241271972656,0.9297940731048584
1716551987744113400,2.137113525390625,-0.01360464096069336,0.6442785263061523,0.6686129570007324
1716551987753780200,2.1467802734375,0.08216726779937744,1.530895709991455,0.44393324851989746
1716551987763447000,2.156447021484375,0.034368157386779785,2.631204128265381,0.2537081241607666
1716551987773113900,2.16611376953125,-0.150834321975708,3.715669631958008,0.09363675117492676
1716551987782780700,2.17578076171875,-0.3873727321624756,4.580531120300293,0.3533327579498291
1716551987792447500,2.185447509765625,-0.8619991540908813,5.859340667724609,0.7868461608886719
1716551987802114300,2.1951142578125,-1.0432085990905762,6.31858491897583,0.7343249320983887
1716551987811781000,2.204781005859375,-0.9761641025543213,6.31350564956665,0.30411744117736816
1716551987821448000,2.214447998046875,-0.4836723804473877,6.702152729034424,-0.1800553798675537
1716551987831114800,2.22411474609375,-0.09316051006317139,6.882400035858154,-0.6154969930648804
1716551987840781600,2.233781494140625,0.4674662947654724,6.976555824279785,-0.9760866165161133
1716551987850448400,2.243448486328125,0.7262287139892578,6.905431270599365,-1.13700532913208
1716551987860115200,2.253115234375,1.4431824684143066,6.601028919219971,-1.1026488542556763
1716551987869782000,2.262781982421875,1.980390191078186,6.068048477172852,-0.7276215553283691
1716551987879448800,2.27244873046875,1.1648399829864502,4.8438286781311035,0.10420668125152588
1716551987889115600,2.28211572265625,1.0578547716140747,-0.1825103759765625,-0.19891586899757385
1716551987898782500,2.291782470703125,2.1479878425598145,-11.91714859008789,-8.421711921691895
1716551987908449300,2.30144921875,1.157546877861023,-18.714237213134766,-13.0335693359375
1716551987918116000,2.3111162109375,2.8518881797790527,-18.870704650878906,-10.341044425964355
1716551987927783000,2.320782958984375,2.5786705017089844,-16.19392204284668,-4.78153133392334
1716551987937449700,2.33044970703125,1.5517313480377197,-14.619828224182129,0.3067140579223633
1716551987947116500,2.340116455078125,-4.96437931060791,-12.652385711669922,4.325937747955322
1716551987956783400,2.349783447265625,-7.2700395584106445,-9.124125480651855,5.1028337478637695
1716551987966450200,2.3594501953125,-4.0890350341796875,-2.956949234008789,0.69559645652771
1716551987976117000,2.369116943359375,-2.271998643875122,0.4149627685546875,-1.2670323848724365
1716551987985783800,2.37878369140625,-0.7126157879829407,2.2058329582214355,-1.861612319946289
1716551987995450600,2.38845068359375,0.42631644010543823,3.1172094345092773,-1.6212084293365479
1716551988005117400,2.398117431640625,0.9783293008804321,3.1390576362609863,-1.0784990787506104
1716551988014784300,2.4077841796875,1.2986907958984375,1.959127426147461,-0.5639693737030029
1716551988024451000,2.417451171875,0.8775963187217712,0.4613227844238281,-0.11345100402832031
1716551988034118100,2.4271181640625,0.22812634706497192,-0.32940006256103516,0.17060232162475586
1716551988043785000,2.436784912109375,-0.34207481145858765,-0.7240085601806641,0.27302122116088867
1716551988053451800,2.44645166015625,-0.9010121822357178,-0.8164815902709961,0.3179333209991455
1716551988063118600,2.45611865234375,-0.8791017532348633,-0.5526771545410156,0.36722278594970703
1716551988072785400,2.465785400390625,-0.5129861235618591,-0.2114248275756836,0.391094446182251
1716551988082452200,2.4754521484375,-0.10331135988235474,-0.07156944274902344,0.3750011920928955
1716551988092119000,2.485119140625,0.6746965646743774,0.1622142791748047,0.2796475887298584
1716551988101785900,2.494785888671875,0.949606716632843,0.22060585021972656,0.14583897590637207
1716551988111452700,2.50445263671875,0.7624328136444092,0.03652381896972656,0.10872006416320801
1716551988121119500,2.514119384765625,0.1951884627342224,-0.019281387329101562,0.033507585525512695
1716551988130786300,2.523786376953125,-0.39962565898895264,-0.029478073120117188,-0.019972562789916992
1716551988140453000,2.533453125,-0.8707613945007324,-0.0683450698852539,-0.08455395698547363
1716551988150120000,2.543119873046875,-1.0379467010498047,0.035462379455566406,-0.08605337142944336
1716551988159786800,2.552786865234375,-0.8750896453857422,0.09292316436767578,-0.05512833595275879
1716551988169453600,2.56245361328125,-0.49609655141830444,0.1591014862060547,-0.01915264129638672
1716551988179120400,2.572120361328125,-0.10761666297912598,0.1554555892944336,0.032410383224487305
1716551988188787200,2.581787109375,0.13912272453308105,0.04686927795410156,0.08269286155700684
1716551988198454000,2.5914541015625,0.18710732460021973,-0.0825510025024414,0.13114547729492188
1716551988208120800,2.601120849609375,0.17461258172988892,-0.12312698364257812,0.14661550521850586
1716551988217787600,2.61078759765625,0.10826253890991211,-0.0895843505859375,0.1814258098602295
1716551988227454500,2.620454345703125,0.053952693939208984,-0.020229339599609375,0.21327781677246094
1716551988237121300,2.630121337890625,-0.013855040073394775,0.046713829040527344,0.15352225303649902
1716551988246788000,2.6397880859375,-0.06896138191223145,0.09698486328125,0.10019969940185547
1716551988256455000,2.649454833984375,-0.12879061698913574,0.10201358795166016,-0.05380129814147949
1716551988266121700,2.659121826171875,-0.20571941137313843,0.06897354125976562,-0.22406339645385742
1716551988275788500,2.66878857421875,-0.3253554105758667,0.08599376678466797,-0.2692091464996338
1716551988285455400,2.678455322265625,-0.43590056896209717,0.10982799530029297,-0.2088627815246582
1716551988295122200,2.6881220703125,-0.47650033235549927,0.12136268615722656,-0.1129298210144043
1716551988304789000,2.6977890625,-0.3856041431427002,0.07777690887451172,-0.029384374618530273
1716551988314455800,2.707455810546875,-0.2034057378768921,0.03183174133300781,-0.02237558364868164
1716551988324122600,2.71712255859375,-0.04635244607925415,-0.0425262451171875,-0.0034101009368896484
1716551988333789400,2.72678955078125,0.03710228204727173,-0.06173515319824219,-0.022305965423583984
1716551988343456300,2.736456298828125,0.07599455118179321,-0.035599708557128906,-0.011985063552856445
1716551988353123000,2.746123046875,0.0542110800743103,-0.0023956298828125,-0.02293109893798828
1716551988362790000,2.755789794921875,0.03455406427383423,0.042636871337890625,-0.0218813419342041
1716551988372456700,2.765456787109375,-0.004492342472076416,0.09948539733886719,-0.004170417785644531
1716551988382123500,2.77512353515625,-0.04124683141708374,0.11564826965332031,-0.015286684036254883
1716551988391790300,2.784790283203125,-0.049665749073028564,0.11513996124267578,-0.019322872161865234
1716551988401457200,2.79445703125,-0.08750122785568237,0.05031871795654297,-0.030536174774169922
1716551988411124000,2.8041240234375,-0.13021647930145264,0.021533966064453125,-0.008307933807373047
1716551988420790800,2.813790771484375,-0.15934067964553833,-0.012086868286132812,0.054439544677734375
1716551988430457600,2.82345751953125,-0.09532684087753296,-0.012460708618164062,0.10035872459411621
1716551988440124400,2.83312451171875,0.022320806980133057,-0.0010309219360351562,0.1007544994354248
1716551988449791200,2.842791259765625,0.12175065279006958,0.024736404418945312,0.09651660919189453
1716551988459458300,2.852458251953125,0.15339362621307373,0.04825019836425781,0.08536744117736816
1716551988469125000,2.862125,0.07428467273712158,0.019464492797851562,0.050583839416503906
1716551988478792000,2.8717919921875,-0.10134232044219971,0.036271095275878906,0.03253006935119629
1716551988488458800,2.881458740234375,-0.22672873735427856,0.028879165649414062,0.032526493072509766
1716551988498125600,2.89112548828125,-0.24828332662582397,0.04990196228027344,0.005693912506103516
1716551988507792400,2.90079248046875,-0.18746203184127808,0.07062721252441406,-0.035533905029296875
1716551988517459200,2.910459228515625,-0.09219425916671753,0.06280899047851562,-0.07390856742858887
1716551988527126000,2.9201259765625,-0.06999027729034424,0.043448448181152344,-0.08814525604248047
1716551988536792800,2.929792724609375,-0.1330958604812622,0.017393112182617188,-0.07161068916320801
1716551988546459600,2.939459716796875,-0.15404200553894043,-0.0012569427490234375,-0.04127764701843262
1716551988556126500,2.94912646484375,-0.114249587059021,-0.0031824111938476562,0.018895864486694336
1716551988565793300,2.958793212890625,-0.04589509963989258,0.013802528381347656,0.08235859870910645
1716551988575460000,2.968460205078125,0.06569850444793701,0.007172584533691406,0.11600708961486816
1716551988585127000,2.978126953125,0.1315482258796692,0.007971763610839844,0.09229493141174316
1716551988594793700,2.987793701171875,0.12394517660140991,0.0065326690673828125,0.04556536674499512
1716551988604460500,2.99746044921875,0.07053828239440918,0.016935348510742188,0.00688624382019043
1716551988614127400,3.00712744140625,-0.015117108821868896,0.04821300506591797,-0.044817209243774414
1716551988623794200,3.016794189453125,-0.053991079330444336,0.04106903076171875,-0.05750417709350586
1716551988633461000,3.0264609375,-0.07273846864700317,0.019695281982421875,-0.05774331092834473
1716551988643127800,3.0361279296875,-0.07667577266693115,0.014949798583984375,-0.06926751136779785
1716551988652794600,3.045794677734375,-0.06175971031188965,0.021864891052246094,-0.06826519966125488
1716551988662461400,3.05546142578125,-0.04501938819885254,0.0026559829711914062,-0.05274772644042969
1716551988672128300,3.065128173828125,-0.09438419342041016,0.03785133361816406,-0.04440045356750488
1716551988681795000,3.074795166015625,-0.08377611637115479,0.07713985443115234,-0.015004396438598633
1716551988691462000,3.0844619140625,-0.06863653659820557,0.07580852508544922,-0.052178382873535156
1716551988701128700,3.094128662109375,-0.03995543718338013,0.04628276824951172,-0.18761324882507324
1716551988710795500,3.10379541015625,-0.07808464765548706,0.08307933807373047,-0.2615633010864258
1716551988720462300,3.11346240234375,-0.14850276708602905,0.07681465148925781,-0.24461746215820312
1716551988730129200,3.123129150390625,-0.167483389377594,0.09884071350097656,-0.21389174461364746
1716551988739796000,3.1327958984375,-0.18051677942276,0.09454154968261719,-0.14845681190490723
1716551988749462800,3.142462890625,-0.15967172384262085,0.07143020629882812,-0.06769394874572754
1716551988759129600,3.152129638671875,-0.1010470986366272,0.015775680541992188,-0.01910567283630371
1716551988768796400,3.16179638671875,-0.04341000318527222,0.0011043548583984375,0.07565546035766602
1716551988778463200,3.171463134765625,-0.0036941170692443848,0.007889747619628906,0.15478825569152832
1716551988788130000,3.181130126953125,0.006285130977630615,-0.0089263916015625,0.2373976707458496
1716551988797796900,3.190796875,0.0009441971778869629,-0.03479957580566406,0.2363121509552002
1716551988807463700,3.200463623046875,-0.05893135070800781,-0.04360485076904297,0.21845269203186035
1716551988817130500,3.210130615234375,-0.058090269565582275,-0.0874176025390625,0.21902179718017578
1716551988826797300,3.21979736328125,0.008046984672546387,-0.08327198028564453,0.16919875144958496
1716551988836464000,3.229464111328125,0.13023227453231812,-0.06729793548583984,0.09845995903015137
1716551988846131000,3.239130859375,0.18556243181228638,-0.060863494873046875,0.02179718017578125
1716551988855797800,3.2487978515625,0.1505192518234253,-0.02148151397705078,-0.07435441017150879
1716551988865464600,3.258464599609375,0.010774195194244385,0.014883995056152344,-0.14954710006713867
1716551988875131400,3.26813134765625,-0.17355382442474365,0.06457233428955078,-0.14293360710144043
1716551988884798200,3.277798095703125,-0.2611736059188843,0.08266925811767578,-0.05411648750305176
1716551988894465000,3.287465087890625,-0.2413572072982788,0.08850288391113281,-0.0069580078125
1716551988904131800,3.2971318359375,-0.11011719703674316,0.01646709442138672,-0.0030570030212402344
1716551988913798700,3.306798583984375,0.001696765422821045,-0.08013439178466797,-0.006430625915527344
1716551988923465500,3.316465576171875,0.03454256057739258,-0.14665794372558594,-0.0663449764251709
1716551988933132300,3.32613232421875,-0.017095744609832764,-0.1859760284423828,-0.07123565673828125
1716551988942799000,3.335799072265625,-0.16049933433532715,-0.1985025405883789,-0.07649397850036621
1716551988952466000,3.3454658203125,-0.2802279591560364,-0.2271881103515625,-0.07259750366210938
1716551988962132700,3.3551328125,-0.340817391872406,-0.2977619171142578,-0.0925285816192627
1716551988971799600,3.364799560546875,-0.376042902469635,-0.33650970458984375,-0.060715436935424805
1716551988981466400,3.37446630859375,-0.42152655124664307,-0.3109092712402344,-0.03247213363647461
1716551988991133200,3.38413330078125,-0.43238502740859985,-0.24312973022460938,-0.04567384719848633
1716551989000800000,3.393800048828125,-0.4467160701751709,-0.13846683502197266,-0.005854129791259766
1716551989010466800,3.403466796875,-0.4269399642944336,-0.03513908386230469,0.0459291934967041
1716551989020133600,3.413133544921875,-0.40015900135040283,0.0058612823486328125,0.08319282531738281
1716551989029800400,3.422800537109375,-0.4146822690963745,-0.025957107543945312,0.05636405944824219
1716551989039467300,3.43246728515625,-0.5104737281799316,-0.05647468566894531,-0.021309375762939453
1716551989049134000,3.442134033203125,-0.763573408126831,-0.12602615356445312,-0.04464244842529297
1716551989058801000,3.45180078125,-1.0684587955474854,-0.12344169616699219,0.1100473403930664
1716551989068467700,3.4614677734375,-1.3158867359161377,-0.09920501708984375,0.38898801803588867
1716551989078134500,3.471134521484375,-1.3754254579544067,-0.011341094970703125,0.6434509754180908
1716551989087801300,3.48080126953125,-1.128560185432434,0.17928218841552734,0.7839109897613525
1716551989097468200,3.49046826171875,-0.963909387588501,0.12859344482421875,0.9710659980773926
1716551989107135000,3.500135009765625,-0.5434625148773193,0.3181447982788086,0.9280858039855957
1716551989116801800,3.5098017578125,-0.28968381881713867,0.36661434173583984,0.9296932220458984
1716551989126468600,3.519468505859375,-0.13079464435577393,0.2642393112182617,0.959343433380127
1716551989136135400,3.529135498046875,0.030225038528442383,0.039058685302734375,0.8546826839447021
1716551989145802200,3.53880224609375,0.03410530090332031,-0.1967906951904297,0.7959549427032471
1716551989155469000,3.548468994140625,0.08091270923614502,-0.2762870788574219,0.7035390138626099
1716551989165136000,3.558135986328125,0.24465203285217285,-0.25026988983154297,0.7399513721466064
1716551989174802700,3.567802734375,0.4550060033798218,-0.10565948486328125,0.750881552696228
1716551989184469500,3.577469482421875,0.7795642614364624,0.1376190185546875,0.6008298397064209
1716551989194136300,3.58713623046875,1.0197069644927979,0.41886329650878906,0.39138197898864746
1716551989203803100,3.59680322265625,1.1024078130722046,0.5524530410766602,0.17958474159240723
1716551989213470000,3.606469970703125,1.1854103803634644,0.6356801986694336,-0.08503556251525879
1716551989223136800,3.61613671875,1.1586378812789917,0.8881626129150391,-0.3752884864807129
1716551989232803600,3.625803466796875,1.111441969871521,1.0081195831298828,-0.5988404750823975
1716551989242470400,3.635470458984375,1.0015002489089966,1.1175479888916016,-0.7532989978790283
1716551989252137200,3.64513720703125,0.8704435229301453,1.1234102249145508,-0.8419225215911865
1716551989261804000,3.654803955078125,0.757736086845398,1.0975046157836914,-0.9462647438049316
1716551989271470800,3.664470947265625,0.709922730922699,1.0851755142211914,-0.9542598724365234
1716551989281137700,3.6741376953125,0.7064574956893921,1.0576696395874023,-0.9500007629394531
1716551989290804500,3.683804443359375,0.7981258630752563,1.0603199005126953,-0.9550414085388184
1716551989300471300,3.69347119140625,0.9414103031158447,1.1288337707519531,-0.9452357292175293
1716551989310137900,3.703137939453125,1.094344973564148,1.0578851699829102,-0.93515944480896
1716551989319804700,3.7128046875,1.1612482070922852,0.9627780914306641,-0.9107184410095215
1716551989329471500,3.722471435546875,1.1561025381088257,0.8609523773193359,-0.8304345607757568
1716551989339138600,3.732138671875,1.0639009475708008,0.9274997711181641,-0.7918336391448975
1716551989348805400,3.741805419921875,0.8054282069206238,1.0403718948364258,-0.8949804306030273
1716551989358472000,3.751471923828125,0.4638548791408539,1.2537384033203125,-1.0180838108062744
1716551989368138800,3.761138671875,0.13592803478240967,1.4616022109985352,-0.9646739959716797
1716551989377805600,3.7708056640625,-0.18436580896377563,1.7233104705810547,-0.7505271434783936
1716551989387472400,3.780472412109375,-0.3761410117149353,1.9475131034851074,-0.5981717109680176
1716551989397139200,3.79013916015625,-0.388700008392334,2.105083465576172,-0.3535442352294922
1716551989406806000,3.799805908203125,-0.19921481609344482,2.0194501876831055,-0.1340651512145996
1716551989416472800,3.809472900390625,-0.03127086162567139,1.7064380645751953,0.024146080017089844
1716551989426139600,3.8191396484375,0.16258656978607178,1.1126823425292969,-0.17727303504943848
1716551989435806500,3.828806396484375,0.2183329164981842,0.4180135726928711,-0.42798805236816406
1716551989445473300,3.838473388671875,0.033960193395614624,-0.13071537017822266,-0.08883023262023926
1716551989455140000,3.84814013671875,-0.1012062132358551,-0.42223167419433594,0.6299197673797607
1716551989464807000,3.857806884765625,0.08664098381996155,-0.009983062744140625,0.9314827919006348
1716551989474473700,3.8674736328125,0.7246096134185791,0.5581684112548828,0.2821621894836426
1716551989484140500,3.877140625,0.9593205451965332,0.69537353515625,-0.2548985481262207
1716551989493807400,3.886807373046875,0.8245490789413452,0.584193229675293,-0.5886881351470947
1716551989503474200,3.89647412109375,0.4294110834598541,0.24202537536621094,-0.68625807762146
1716551989513141000,3.90614111328125,-0.8752543926239014,-0.8722457885742188,-0.661198616027832
1716551989522807800,3.915807861328125,-10.320491790771484,-3.5438623428344727,-1.052154541015625
1716551989532474600,3.925474609375,-9.572346687316895,-4.07795524597168,-2.5072810649871826
1716551989542141400,3.935141357421875,-0.6702288389205933,-4.01945686340332,-3.1309585571289062
1716551989551808300,3.944808349609375,2.7692759037017822,-5.075995445251465,-3.3695812225341797
1716551989561475000,3.95447509765625,2.4696924686431885,-7.0345916748046875,-3.9844439029693604
1716551989571142000,3.964141845703125,2.4965031147003174,-9.30728530883789,-4.518514633178711
1716551989580808700,3.97380859375,2.491865634918213,-11.921512603759766,-4.193470478057861
1716551989590475500,3.9834755859375,1.93507719039917,-12.80349349975586,-3.1897873878479004
1716551989600142300,3.993142333984375,1.1383335590362549,-11.342317581176758,-1.9766120910644531
1716551989609809200,4.00280908203125,0.19980910420417786,-8.699422836303711,-1.029517412185669
1716551989619476000,4.01247607421875,-0.45673197507858276,-6.203798294067383,-0.5285365581512451
1716551989629142800,4.022142822265625,-0.8052669763565063,-4.116991996765137,-0.13969659805297852
1716551989638809600,4.0318095703125,-1.3280340433120728,-2.084561347961426,0.22807025909423828
1716551989648476400,4.041476318359375,-1.9718289375305176,-0.10707283020019531,0.45070719718933105
1716551989658143200,4.051143310546875,-2.7038919925689697,1.9634737968444824,0.8350672721862793
1716551989667810000,4.06081005859375,-4.258347034454346,4.0885396003723145,1.3380131721496582
1716551989677476900,4.070476806640625,-6.223249912261963,5.881474494934082,2.253448009490967
1716551989687143700,4.080143798828125,-6.064456462860107,6.672958850860596,3.031259059906006
1716551989696810500,4.089810546875,-3.693568468093872,6.891298770904541,3.3998751640319824
1716551989706477300,4.099477294921875,-1.3387150764465332,7.039942264556885,3.4742822647094727
1716551989716144000,4.10914404296875,0.4981164336204529,7.216068267822266,3.5227837562561035
1716551989725811000,4.11881103515625,1.752504587173462,7.46482515335083,3.8012194633483887
1716551989735477800,4.128477783203125,2.8642334938049316,7.774118423461914,4.162448406219482
1716551989745144600,4.13814453125,4.764756679534912,7.788932800292969,4.682133674621582
1716551989754811100,4.14781103515625,5.976377487182617,8.405515670776367,4.36364221572876
1716551989764478000,4.15747802734375,5.123858451843262,8.335027694702148,4.372226715087891
1716551989774145000,4.16714501953125,3.5946543216705322,8.396866798400879,4.446784019470215
1716551989783811600,4.1768115234375,2.4609222412109375,8.736679077148438,3.9723424911499023
1716551989793478400,4.186478515625,1.278792381286621,9.207771301269531,2.906308889389038
1716551989803145200,4.196145263671875,1.0994629859924316,9.475105285644531,2.1416852474212646
1716551989812812000,4.20581201171875,0.8082605004310608,9.514595985412598,1.7641630172729492
1716551989822478800,4.215478759765625,-1.376816749572754,9.6719388961792,1.205436110496521
1716551989832145700,4.225145751953125,-3.6603574752807617,8.856538772583008,0.24011433124542236
1716551989841812500,4.2348125,-3.1423254013061523,7.887973308563232,-0.045268893241882324
1716551989851479300,4.244479248046875,-1.852028727531433,4.804624080657959,-0.2825775742530823
1716551989861146000,4.25414599609375,1.112981915473938,-7.248879432678223,-5.1711506843566895
1716551989870813000,4.26381298828125,2.085958242416382,-26.758647918701172,-15.607034683227539
1716551989880479700,4.273479736328125,4.312187194824219,-37.55568313598633,-18.346683502197266
1716551989890146600,4.283146484375,6.047383785247803,-40.74781799316406,-9.275627136230469
1716551989899813400,4.2928134765625,1.358736515045166,-36.04914855957031,-1.4219039678573608
1716551989909480200,4.302480224609375,-3.308175563812256,-21.169038772583008,-0.16837430000305176
1716551989919147000,4.31214697265625,-2.9108262062072754,-8.740015029907227,-0.7361230850219727
1716551989928813800,4.321813720703125,-1.1665558815002441,-3.3645668029785156,-2.1929893493652344
1716551989938480600,4.331480712890625,0.08334469795227051,-0.8148765563964844,-2.4827065467834473
1716551989948147500,4.3411474609375,0.24302244186401367,0.6921281814575195,-2.195641040802002
1716551989957814300,4.350814208984375,0.030004918575286865,1.811605453491211,-1.960498332977295
1716551989967481000,4.360481201171875,-0.3543989658355713,2.9459762573242188,-1.806140661239624
1716551989977148000,4.37014794921875,-0.7559027671813965,4.341202259063721,-1.4060046672821045
1716551989986814700,4.379814697265625,-0.7956618070602417,5.817418098449707,-0.6949288845062256
1716551989996481500,4.3894814453125,-0.6948976516723633,7.188709259033203,0.23569738864898682
1716551990006148400,4.3991484375,-0.49603500962257385,8.210369110107422,1.2173014879226685
1716551990015815200,4.408815185546875,-0.24021080136299133,8.834220886230469,1.9859105348587036
1716551990025482000,4.41848193359375,0.13233834505081177,9.143598556518555,2.634195327758789
1716551990035148500,4.4281484375,0.35701727867126465,9.326568603515625,3.023942232131958
1716551990044815400,4.4378154296875,0.3810514807701111,9.508108139038086,3.2557921409606934
1716551990054482200,4.447482177734375,0.2976965308189392,9.680646896362305,3.2778124809265137
1716551990064149000,4.45714892578125,0.0636076033115387,9.860064506530762,3.304264783859253
1716551990073815800,4.46681591796875,-1.2065249681472778,10.091607093811035,3.705766439437866
1716551990083482600,4.476482666015625,-8.985604286193848,10.927532196044922,5.7887067794799805
1716551990093149400,4.4861494140625,-2.634101629257202,10.819430351257324,5.307002067565918
1716551990102816300,4.495816162109375,0.9320223927497864,10.257110595703125,5.577548027038574
1716551990112483000,4.505483154296875,1.7967766523361206,9.765551567077637,5.915013313293457
1716551990122150000,4.51514990234375,2.469697952270508,9.366973876953125,6.691102504730225
1716551990131816700,4.524816650390625,3.4679882526397705,9.449091911315918,6.838882923126221
1716551990141483500,4.5344833984375,3.661689281463623,9.735846519470215,6.266315460205078
1716551990151150300,4.544150390625,1.8270201683044434,9.778694152832031,5.728761196136475
1716551990160817200,4.553817138671875,0.9128811359405518,9.247652053833008,5.105593681335449
1716551990170484000,4.56348388671875,0.7784022688865662,8.019612312316895,4.375888824462891
1716551990180150800,4.57315087890625,-0.9433623552322388,6.544702053070068,4.248654365539551
1716551990189817600,4.582817626953125,-5.243597984313965,0.7962608337402344,5.595575332641602
1716551990199484400,4.592484375,1.4742379188537598,-6.4177093505859375,6.11830997467041
1716551990209151200,4.602151123046875,3.509601354598999,-23.013540267944336,1.0324490070343018
1716551990218818000,4.611818115234375,6.681881904602051,-52.562416076660156,-9.428725242614746
1716551990228484900,4.62148486328125,4.831888198852539,-68.56542205810547,-20.134878158569336
1716551990238151700,4.631151611328125,-2.877903461456299,-49.820308685302734,-14.395901679992676
1716551990247818500,4.640818603515625,-5.41910457611084,-20.538330078125,-8.003575325012207
1716551990257485000,4.650485107421875,-5.845901966094971,-9.480107307434082,-4.8328704833984375
1716551990267152000,4.66015185546875,3.0727498531341553,-5.104252815246582,-1.658862829208374
1716551990276818700,4.669818603515625,2.6808295249938965,-0.8195781707763672,-0.9013054370880127
1716551990286485500,4.679485595703125,1.6524600982666016,1.8611712455749512,-0.7116825580596924
1716551990296152300,4.68915234375,1.3287273645401,3.4894347190856934,-0.4429752826690674
1716551990305819100,4.698819091796875,1.2780171632766724,4.8487653732299805,-0.3601493835449219
1716551990315486000,4.70848583984375,1.2359017133712769,6.083059310913086,0.04498481750488281
1716551990325152800,4.71815283203125,1.057420253753662,6.948444366455078,0.5339488983154297
1716551990334819600,4.727819580078125,0.7906063795089722,7.519961833953857,1.076061725616455
1716551990344486400,4.737486328125,0.8610855937004089,7.566281795501709,2.0902886390686035
1716551990354153200,4.7471533203125,-0.27095481753349304,7.987078666687012,3.1245534420013428
1716551990363820000,4.756820068359375,-0.7343289256095886,8.594480514526367,3.8046727180480957
1716551990373486800,4.76648681640625,1.1505852937698364,8.570385932922363,4.224217891693115
1716551990383153700,4.776153564453125,1.47123122215271,8.810567855834961,4.302851676940918
1716551990392820500,4.785820556640625,1.7250704765319824,9.26801872253418,4.092144966125488
1716551990402487300,4.7954873046875,2.2905163764953613,9.503884315490723,3.996302604675293
1716551990412154000,4.805154052734375,3.89511775970459,9.904460906982422,4.210538387298584
1716551990421821000,4.814821044921875,6.1638569831848145,10.62646770477295,4.882030963897705
1716551990431487500,4.824487548828125,5.299877166748047,10.577938079833984,5.09663200378418
1716551990441154300,4.834154296875,2.985593795776367,10.07118034362793,5.13966703414917
1716551990450821400,4.8438212890625,-0.5051738023757935,9.978960037231445,5.158576965332031
1716551990460488000,4.853488037109375,-12.727161407470703,11.94587230682373,5.555516242980957
1716551990470154800,4.86315478515625,-8.536312103271484,12.048080444335938,5.352257251739502
1716551990479821600,4.872821533203125,-2.0223145484924316,11.389225006103516,5.259578227996826
1716551990489488400,4.88248828125,1.4194127321243286,10.864672660827637,4.814406871795654
1716551990499155200,4.8921552734375,0.7159780263900757,9.88914966583252,3.8226723670959473
1716551990508822000,4.901822021484375,-2.2843847274780273,8.10366153717041,2.5288805961608887
1716551990518488800,4.91148876953125,-2.168708086013794,6.760491847991943,2.7986226081848145
1716551990528155600,4.92115576171875,-0.016138553619384766,6.1306962966918945,3.0014939308166504
1716551990537822500,4.930822509765625,1.9437800645828247,4.691061973571777,2.9727582931518555
1716551990547489300,4.9404892578125,3.0588908195495605,-1.7219743728637695,-4.094365119934082
1716551990557156000,4.950156005859375,4.535158634185791,-26.93505859375,-34.81049346923828
1716551990566823000,4.959822998046875,3.4936442375183105,-48.52654266357422,-49.43436813354492
1716551990576489700,4.96948974609375,-1.364450454711914,-49.953208923339844,-37.78046798706055
1716551990586156500,4.979156494140625,-4.73842191696167,-36.952423095703125,-21.57317352294922
1716551990595823000,4.988822998046875,-2.199492931365967,-17.343120574951172,-7.990675926208496
1716551990605490200,4.998490234375,0.8968492746353149,-7.1400041580200195,-0.45654892921447754
1716551990615156700,5.00815673828125,2.7193474769592285,-2.190056800842285,3.833889961242676
1716551990624823600,5.017823486328125,2.1702234745025635,0.4953746795654297,6.094095230102539
1716551990634490400,5.027490478515625,0.9284011721611023,2.524850845336914,5.846515655517578
1716551990644157200,5.0371572265625,0.267078161239624,3.8109965324401855,5.122852802276611
1716551990653824000,5.046823974609375,0.3749472498893738,4.770938396453857,4.825389385223389
1716551990663490800,5.05649072265625,0.7634205222129822,5.611457824707031,4.774582386016846
1716551990673157600,5.06615771484375,1.234181523323059,6.292655944824219,4.992326736450195
1716551990682824400,5.075824462890625,1.7984633445739746,6.833926200866699,5.441612720489502
1716551990692491300,5.0854912109375,1.9740345478057861,7.3623948097229,5.869394302368164
1716551990702158000,5.095157958984375,1.6939572095870972,7.968751907348633,6.183707237243652
1716551990711825000,5.104824951171875,1.3001034259796143,8.632037162780762,6.288919448852539
1716551990721491700,5.11449169921875,1.041459321975708,9.108651161193848,6.480210304260254
1716551990731158500,5.124158447265625,0.8592407703399658,9.329572677612305,6.703057289123535
1716551990740825300,5.133825439453125,0.6955662369728088,9.459819793701172,6.980481147766113
1716551990750492000,5.143491943359375,0.6680489778518677,9.305644035339355,7.481782913208008
1716551990760159000,5.153158935546875,1.0054426193237305,8.959030151367188,8.299376487731934
1716551990769825500,5.162825439453125,0.4619981646537781,8.448081016540527,9.512886047363281
1716551990779492400,5.172492431640625,-1.0611698627471924,7.873254776000977,11.168947219848633
1716551990789159200,5.1821591796875,-1.883768081665039,7.669494152069092,11.759424209594727
1716551990798826000,5.191825927734375,0.012497872114181519,7.981077194213867,10.562203407287598
1716551990808492800,5.201492919921875,1.0070507526397705,8.449102401733398,9.258367538452148
1716551990818159600,5.21115966796875,-5.35727071762085,8.827751159667969,9.385885238647461
1716551990827826400,5.220826416015625,-10.868396759033203,5.7153167724609375,7.881916046142578
1716551990837493200,5.2304931640625,-0.7374347448348999,6.440107345581055,5.196794509887695
1716551990847160000,5.24016015625,1.9093964099884033,7.105893135070801,4.385509490966797
1716551990856827000,5.249826904296875,2.8004515171051025,5.876153945922852,4.360621452331543
1716551990866493700,5.25949365234375,3.0288753509521484,2.902904510498047,4.935574054718018
1716551990876160500,5.269160400390625,2.722949743270874,-4.614560127258301,3.7837483882904053
1716551990885827000,5.2788271484375,4.244541645050049,-27.46266746520996,-3.961214303970337
1716551990895494000,5.288493896484375,9.29157829284668,-60.17854309082031,-17.153411865234375
1716551990905160700,5.29816064453125,7.294430732727051,-64.05455780029297,-21.205310821533203
1716551990914827500,5.30782763671875,0.2899739742279053,-42.041568756103516,-14.278884887695312
1716551990924494300,5.317494384765625,-3.9294612407684326,-22.449419021606445,-7.511452674865723
1716551990934161200,5.3271611328125,-1.2285587787628174,-11.043208122253418,-3.598954200744629
1716551990943828000,5.336827880859375,-0.2785175144672394,-4.364113807678223,-2.097963333129883
1716551990953494800,5.346494873046875,-0.11785680055618286,-1.0273008346557617,-1.5201873779296875
1716551990963161600,5.35616162109375,-0.8461791276931763,0.963623046875,-1.5336599349975586
1716551990972828400,5.365828369140625,-2.4964938163757324,2.318373680114746,-2.005837917327881
1716551990982495200,5.3754951171875,-3.5498268604278564,3.3442935943603516,-2.156437397003174
1716551990992162000,5.385162109375,-3.0774991512298584,4.652013301849365,-1.4603824615478516
1716551991001828900,5.394828857421875,-2.2131292819976807,6.021117210388184,-0.12285900115966797
1716551991011495700,5.40449560546875,-2.2737035751342773,7.15736198425293,1.2397518157958984
1716551991021162200,5.414162353515625,-3.1355535984039307,8.095664978027344,2.2478513717651367
1716551991030829000,5.4238291015625,-3.207481861114502,8.580021858215332,3.4037208557128906
1716551991040495900,5.433495849609375,-1.5051958560943604,8.447680473327637,4.34644889831543
1716551991050162700,5.44316259765625,0.609301745891571,8.158331871032715,4.828563690185547
1716551991059829500,5.45282958984375,1.4536848068237305,7.988491535186768,5.1135687828063965
1716551991069496300,5.462496337890625,1.68825101852417,8.132229804992676,5.209803581237793
1716551991079163100,5.4721630859375,2.033143997192383,8.364947319030762,5.097630977630615
1716551991088830000,5.481829833984375,2.63952374458313,8.690068244934082,5.06024169921875
1716551991098496800,5.491496826171875,4.214302062988281,8.668474197387695,5.3552374839782715
1716551991108163600,5.50116357421875,4.920376777648926,8.484619140625,5.701571464538574
1716551991117830400,5.510830322265625,4.838315963745117,8.45410442352295,5.778273582458496
1716551991127497000,5.5204970703125,3.804807662963867,8.44703197479248,6.106670379638672
1716551991137164000,5.5301640625,2.017578601837158,8.635597229003906,6.157371997833252
1716551991146830600,5.53983056640625,1.0231032371520996,8.802495002746582,6.086442947387695
1716551991156497400,5.549497314453125,0.5319035053253174,8.956653594970703,5.910439968109131
1716551991166164200,5.559164306640625,0.30956795811653137,9.175718307495117,5.3761444091796875
1716551991175831000,5.5688310546875,0.14991402626037598,9.365346908569336,4.969083309173584
1716551991185497900,5.578497802734375,-0.4357130229473114,9.502771377563477,4.4193620681762695
1716551991195164700,5.58816455078125,-9.905677795410156,10.074782371520996,0.8807456493377686
1716551991204831500,5.59783154296875,-8.464762687683105,8.209568977355957,0.37963175773620605
1716551991214498300,5.607498291015625,-1.063636064529419,7.917727947235107,2.044525623321533
1716551991224165000,5.6171650390625,1.487112045288086,7.277942657470703,2.48584246635437
1716551991233832000,5.62683203125,1.36879563331604,1.2281103134155273,1.0400559902191162
1716551991243498800,5.636498779296875,4.398914813995361,-22.042287826538086,-17.244407653808594
1716551991253165300,5.646165283203125,3.4897384643554688,-46.482608795166016,-41.58205795288086
1716551991262832000,5.65583203125,-4.150284290313721,-57.18626403808594,-38.473350524902344
1716551991272499000,5.6654990234375,-6.4946088790893555,-52.78329086303711,-22.240612030029297
1716551991282165800,5.675165771484375,-2.936616897583008,-20.115726470947266,-10.752307891845703
1716551991291832600,5.68483251953125,0.3553658723831177,-5.612285614013672,-6.44163703918457
1716551991301499400,5.69449951171875,2.4186630249023438,0.4763956069946289,-2.621250629425049
1716551991311166200,5.704166259765625,2.9407033920288086,3.443305015563965,-0.18620562553405762
1716551991320833000,5.7138330078125,2.8356857299804688,5.248177528381348,0.6894838809967041
1716551991330499800,5.723499755859375,1.736422061920166,6.356242656707764,1.0577642917633057
1716551991340166700,5.733166748046875,0.6715770363807678,6.839483261108398,1.7812178134918213
1716551991349833500,5.74283349609375,0.22261691093444824,7.125435829162598,2.620941638946533
1716551991359500000,5.7525,0.015137255191802979,7.41601037979126,3.2544102668762207
1716551991369166800,5.762166748046875,0.3531803488731384,7.715785026550293,3.711848258972168
1716551991378833700,5.771833740234375,0.6642715334892273,7.987712860107422,4.090272903442383
1716551991388500500,5.78150048828125,0.805528998374939,8.261367797851562,4.563002109527588
1716551991398167300,5.791167236328125,0.6979954242706299,8.458895683288574,5.098897457122803
1716551991407834000,5.800834228515625,0.6393314599990845,8.694967269897461,5.515678405761719
1716551991417501000,5.8105009765625,0.8812612891197205,8.861621856689453,5.763582229614258
1716551991427167700,5.820167724609375,1.0143479108810425,8.888707160949707,6.2969183921813965
1716551991436834600,5.82983447265625,0.9524040818214417,8.943422317504883,6.763344764709473
1716551991446501400,5.83950146484375,0.48130881786346436,8.905582427978516,7.196564674377441
1716551991456168200,5.849168212890625,-0.8355892300605774,8.717962265014648,7.987425804138184
1716551991465834800,5.858834716796875,-6.0143280029296875,8.985820770263672,9.475597381591797
1716551991475501600,5.86850146484375,-8.081356048583984,8.96410846710205,10.866390228271484
1716551991485168400,5.87816845703125,-4.760737419128418,8.319819450378418,11.14156436920166
1716551991494835200,5.887835205078125,2.789064884185791,7.568088054656982,10.485400199890137
1716551991504502000,5.897501953125,3.2928481101989746,7.30509090423584,10.659515380859375
1716551991514168800,5.9071689453125,3.3487484455108643,6.842661380767822,10.426361083984375
1716551991523835600,5.916835693359375,4.233621597290039,6.255212783813477,9.965141296386719
1716551991533502500,5.92650244140625,1.7197647094726562,6.047860145568848,7.358630180358887
1716551991543169300,5.936169189453125,0.12350219488143921,5.584828853607178,6.149373531341553
1716551991552836000,5.945836181640625,-3.2593698501586914,3.6570239067077637,5.777924060821533
1716551991562502700,5.955502685546875,-4.903557777404785,-1.1301393508911133,4.973016262054443
1716551991572169500,5.96516943359375,-0.2512076497077942,-8.993850708007812,2.5721170902252197
1716551991581836300,5.974836181640625,3.0102639198303223,-26.093246459960938,-4.144205570220947
1716551991591503000,5.984503173828125,7.511666297912598,-46.54928970336914,-14.27660846710205
1716551991601170000,5.994169921875,6.406042098999023,-53.164390563964844,-21.141551971435547
1716551991610836700,6.003836669921875,-3.120011568069458,-37.38813018798828,-14.997428894042969
1716551991620503600,6.013503662109375,-3.1930580139160156,-19.85706329345703,-8.742849349975586
1716551991630170400,6.02317041015625,-1.7151906490325928,-8.890053749084473,-7.884767532348633
1716551991639837200,6.032837158203125,0.49523627758026123,-4.145854949951172,-6.753594398498535
1716551991649504000,6.04250390625,1.728946328163147,-2.3533763885498047,-5.699404716491699
1716551991659170600,6.052170654296875,2.1805789470672607,-1.8009986877441406,-5.466485023498535
1716551991668837400,6.06183740234375,2.877704381942749,-1.9237451553344727,-5.773932456970215
1716551991678504200,6.071504150390625,3.1947154998779297,-1.9113283157348633,-5.425819396972656
1716551991688171000,6.0811708984375,3.506603479385376,-1.0094289779663086,-4.726690769195557
1716551991697837800,6.090837890625,3.802381753921509,0.6926584243774414,-3.6636605262756348
1716551991707504600,6.100504638671875,4.088469505310059,2.765965461730957,-2.0066442489624023
1716551991717171500,6.11017138671875,3.575416326522827,4.631983757019043,-0.2667570114135742
1716551991726838300,6.11983837890625,2.056151866912842,5.97064733505249,0.9003188610076904
1716551991736505000,6.129505126953125,0.23028863966464996,7.055421829223633,1.9908270835876465
1716551991746171600,6.139171630859375,-4.372651100158691,8.706155776977539,3.0461888313293457
1716551991755838500,6.14883837890625,-13.66153335571289,10.949419021606445,4.040955543518066
1716551991765505300,6.15850537109375,-5.909087181091309,9.70845890045166,4.715148448944092
1716551991775172000,6.168172119140625,-0.5239799618721008,8.95890998840332,4.92292594909668
1716551991784839000,6.1778388671875,1.4366408586502075,9.065608978271484,5.0323405265808105
1716551991794505700,6.187505615234375,1.7006908655166626,9.173819541931152,5.043377876281738
1716551991804172500,6.197172607421875,1.3597302436828613,8.934036254882812,5.3405961990356445
1716551991813839400,6.20683935546875,1.4288004636764526,8.658713340759277,5.910504341125488
1716551991823506200,6.216506103515625,1.89021897315979,8.483521461486816,6.95655632019043
1716551991833173000,6.226173095703125,0.993442714214325,8.359896659851074,8.396669387817383
1716551991842839600,6.235839599609375,-3.999737024307251,8.462291717529297,9.667901992797852
1716551991852506400,6.24550634765625,-7.086894512176514,8.921680450439453,10.314432144165039
1716551991862173200,6.255173095703125,-4.137074947357178,9.470968246459961,10.07290267944336
1716551991871840000,6.264840087890625,-2.220667600631714,9.700849533081055,9.412511825561523
1716551991881506800,6.2745068359375,-1.2363516092300415,9.659873962402344,7.643425941467285
1716551991891173600,6.284173583984375,-0.666515588760376,9.306365013122559,4.336543560028076
1716551991900840400,6.29384033203125,-0.28211072087287903,8.483007431030273,3.3556697368621826
1716551991910507300,6.30350732421875,-0.20613890886306763,7.739897727966309,3.094102621078491
1716551991920174000,6.313174072265625,0.4222755432128906,7.367762565612793,2.782672166824341
1716551991929840600,6.322840576171875,0.8225455284118652,6.536862373352051,2.0666775703430176
1716551991939507500,6.332507568359375,1.1910003423690796,-1.5291433334350586,-4.155661106109619
1716551991949174300,6.34217431640625,2.5719754695892334,-22.585105895996094,-25.15098762512207
1716551991958841000,6.351841064453125,2.0960211753845215,-38.66337585449219,-42.30723571777344
1716551991968508000,6.3615078125,0.7652829885482788,-44.24338150024414,-32.053871154785156
1716551991978174700,6.3711748046875,0.03679800033569336,-37.38520812988281,-16.634410858154297
1716551991987841500,6.380841552734375,0.32107752561569214,-17.418787002563477,-8.437573432922363
1716551991997508400,6.39050830078125,1.8581748008728027,-7.318826675415039,-3.7669243812561035
1716551992007175200,6.400175048828125,2.25264310836792,-3.0275039672851562,-0.9618821144104004
1716551992016841700,6.409841796875,1.5203330516815186,-1.1733503341674805,-0.6337947845458984
1716551992026508500,6.419508544921875,-0.7518643736839294,-1.9791498184204102,-1.7517023086547852
1716551992036175400,6.42917529296875,-1.878826379776001,-2.596250534057617,-2.617903232574463
1716551992045842200,6.43884228515625,-1.8962562084197998,-1.118971824645996,-3.1043319702148438
1716551992055509000,6.448509033203125,-1.2174532413482666,1.0463242530822754,-2.5203981399536133
1716551992065175800,6.45817578125,-0.20417261123657227,2.926403045654297,-1.4341602325439453
1716551992074842600,6.467842529296875,0.44080814719200134,4.2202277183532715,-0.31327009201049805
1716551992084509400,6.477509521484375,0.8068140745162964,4.486752033233643,1.0795791149139404
1716551992094176000,6.487176025390625,0.7947376370429993,5.429374694824219,2.315192699432373
1716551992103842800,6.4968427734375,0.8325104117393494,6.110753059387207,3.476661205291748
1716551992113509600,6.506509521484375,0.9498801231384277,6.739973545074463,4.48671293258667
1716551992123176400,6.516176513671875,1.4164602756500244,7.331635475158691,5.297988414764404
1716551992132843300,6.52584326171875,1.273197054862976,7.727040767669678,6.126574516296387
1716551992142510000,6.535510009765625,0.8487613201141357,8.126291275024414,6.691265106201172
1716551992152177000,6.545177001953125,0.2738109230995178,8.496556282043457,7.147639274597168
1716551992161843700,6.55484375,-0.4153575301170349,8.740972518920898,7.657748699188232
1716551992171510300,6.56451025390625,-0.8315948247909546,9.10277271270752,7.949433326721191
1716551992181177000,6.574177001953125,-0.7107449173927307,9.058144569396973,8.16549301147461
1716551992190844000,6.583843994140625,-0.3361445963382721,8.588987350463867,8.229541778564453
1716551992200510700,6.5935107421875,0.3447982668876648,8.013075828552246,8.657418251037598
1716551992210177500,6.603177490234375,0.28353703022003174,7.6547465324401855,9.092622756958008
1716551992219844400,6.61284423828125,0.43006283044815063,7.493180274963379,9.064214706420898
1716551992229511200,6.62251123046875,0.37145525217056274,7.451455593109131,9.242558479309082
1716551992239178000,6.632177978515625,0.2088753879070282,7.4121294021606445,9.557344436645508
1716551992248844500,6.641844482421875,-1.312398910522461,7.3271164894104,9.895805358886719
1716551992258511400,6.651511474609375,-9.457823753356934,5.039711952209473,9.1644926071167
1716551992268178200,6.66117822265625,-3.7696902751922607,5.670008659362793,6.160231113433838
1716551992277845000,6.670844970703125,1.460732340812683,6.5370306968688965,5.2245306968688965
1716551992287511800,6.68051171875,1.9692472219467163,5.705728530883789,5.291548252105713
1716551992297178600,6.6901787109375,2.3513071537017822,2.2527074813842773,5.709940433502197
1716551992306845400,6.699845458984375,3.3389275074005127,-7.18343448638916,2.7816855907440186
1716551992316512300,6.70951220703125,7.739526748657227,-28.435226440429688,-9.964923858642578
1716551992326178800,6.7191787109375,8.792905807495117,-56.91001892089844,-26.116552352905273
1716551992335845600,6.728845703125,6.475653648376465,-59.819061279296875,-26.19656753540039
1716551992345512400,6.738512451171875,-1.521958589553833,-45.04176712036133,-14.844304084777832
1716551992355179300,6.74817919921875,-9.477311134338379,-20.240283966064453,-7.54874849319458
1716551992364846000,6.75784619140625,-6.513001918792725,-7.326712608337402,-6.936204433441162
1716551992374513000,6.767512939453125,0.9427714347839355,-3.0006046295166016,-4.001107692718506
1716551992384179500,6.777179443359375,1.0428932905197144,-0.3973264694213867,-1.6668181419372559
1716551992393846500,6.786846435546875,0.7021739482879639,0.856663703918457,-1.106888771057129
1716551992403513000,6.79651318359375,0.718238353729248,1.3225483894348145,-0.9605093002319336
1716551992413180000,6.806179931640625,1.2332334518432617,1.8295278549194336,-1.1339240074157715
1716551992422846700,6.8158466796875,1.2117421627044678,2.965545177459717,-1.0078864097595215
1716551992432513500,6.825513427734375,-0.7703791856765747,4.162588119506836,-0.5308728218078613
1716551992442180400,6.835180419921875,-3.4692420959472656,5.4772629737854,0.23313522338867188
1716551992451847200,6.84484716796875,-5.5052666664123535,6.734818458557129,1.427037000656128
1716551992461513700,6.854513671875,-3.794970750808716,6.667348384857178,3.1287124156951904
1716551992471180500,6.8641806640625,-1.6904656887054443,6.643712997436523,4.07901668548584
1716551992480847400,6.873847412109375,0.298743337392807,6.664280891418457,4.461376667022705
1716551992490514200,6.88351416015625,1.1253154277801514,7.168577194213867,4.879670143127441
1716551992500181000,6.893180908203125,1.4326050281524658,7.668971061706543,5.198699474334717
1716551992509847800,6.902847900390625,1.6464816331863403,8.177677154541016,5.279821872711182
1716551992519514600,6.9125146484375,1.7948076725006104,8.6683988571167,5.288242816925049
1716551992529181200,6.92218115234375,2.0379762649536133,8.859245300292969,5.475429058074951
1716551992538848000,6.931847900390625,3.684994697570801,8.735696792602539,6.055692672729492
1716551992548514800,6.941514892578125,4.744368076324463,8.308332443237305,6.763494491577148
1716551992558181600,6.951181640625,4.236984729766846,7.87310266494751,7.390230178833008
1716551992567848400,6.960848388671875,2.698246479034424,7.8308305740356445,7.569299697875977
1716551992577515300,6.970515380859375,1.569854497909546,7.678318023681641,8.32452392578125
1716551992587182000,6.98018212890625,0.5082813501358032,7.85635232925415,8.516408920288086
1716551992596849000,6.989848876953125,-10.595614433288574,9.33919906616211,9.359969139099121
1716551992606515500,6.999515380859375,-10.398809432983398,10.560391426086426,8.043543815612793
1716551992616182300,7.009182373046875,-5.197098731994629,10.661271095275879,5.581844329833984
1716551992625849000,7.01884912109375,-1.2891713380813599,10.146418571472168,3.245626449584961
1716551992635516000,7.028515869140625,1.502829670906067,9.348128318786621,1.870885968208313
1716551992645182700,7.0381826171875,2.487806797027588,8.601300239562988,1.6931066513061523
1716551992654849500,7.047849609375,2.5908002853393555,8.09768009185791,1.665977954864502
1716551992664516400,7.057516357421875,2.4792563915252686,7.641570091247559,1.495260238647461
1716551992674183000,7.067182861328125,1.7848511934280396,5.893245697021484,0.9748111367225647
1716551992683849700,7.076849609375,0.44157397747039795,-12.83060073852539,-7.2805256843566895
1716551992693516500,7.0865166015625,0.6069356799125671,-43.08943176269531,-31.19779396057129
1716551992703183400,7.096183349609375,2.0731611251831055,-56.406551361083984,-37.46824264526367
1716551992712850200,7.10585009765625,2.2608463764190674,-55.946807861328125,-23.013391494750977
1716551992722517000,7.11551708984375,-0.026445865631103516,-31.99335479736328,-7.032284736633301
1716551992732183800,7.125183837890625,-1.8610649108886719,-11.07724380493164,-2.83364200592041
1716551992741850400,7.134850341796875,-1.993562936782837,-2.3783950805664062,-2.60593843460083
1716551992751517200,7.14451708984375,-1.7264450788497925,1.878082275390625,-1.9878404140472412
1716551992761184000,7.15418408203125,-1.0227513313293457,3.0959300994873047,-1.6301534175872803
1716551992770850800,7.163850830078125,-0.34109222888946533,2.6976656913757324,-1.73665189743042
1716551992780517600,7.173517578125,0.34000998735427856,2.7533040046691895,-1.5961012840270996
1716551992790184400,7.183184326171875,0.7026895880699158,3.6355724334716797,-1.1170003414154053
1716551992799851300,7.192851318359375,0.7945841550827026,4.6671977043151855,-0.32126736640930176
1716551992809517800,7.202517822265625,0.6888339519500732,5.3640971183776855,0.8036701679229736
1716551992819184600,7.2121845703125,0.6477137207984924,5.967620849609375,1.8509732484817505
1716551992828851500,7.2218515625,0.6001801490783691,6.4794921875,2.7332749366760254
1716551992838518300,7.231518310546875,0.6818253993988037,6.927546501159668,3.595862865447998
1716551992848185000,7.24118505859375,0.691126823425293,7.212705612182617,4.243229389190674
1716551992857851600,7.2508515625,0.6836853623390198,7.642200469970703,4.795805931091309
1716551992867518500,7.2605185546875,0.7257301807403564,8.037949562072754,5.292357444763184
1716551992877185300,7.270185302734375,0.8709294199943542,8.396027565002441,5.701498031616211
1716551992886852000,7.27985205078125,1.1304600238800049,8.7059907913208,6.389971733093262
1716551992896519000,7.289518798828125,1.5826210975646973,9.068443298339844,7.410333633422852
1716551992906185700,7.299185791015625,-0.9254742860794067,8.930800437927246,8.84001350402832
1716551992915852500,7.3088525390625,-3.6298668384552,8.557576179504395,9.688766479492188
1716551992925519000,7.31851904296875,-2.3819384574890137,8.477075576782227,9.426212310791016
1716551992935186000,7.32818603515625,-0.22353336215019226,8.558874130249023,8.410812377929688
1716551992944852700,7.337852783203125,-0.08866667747497559,8.4473876953125,8.260503768920898
1716551992954519600,7.34751953125,-0.3034502863883972,8.529022216796875,7.895536422729492
1716551992964186400,7.357186279296875,-0.6573317646980286,8.547317504882812,7.90753173828125
1716551992973853200,7.366853271484375,-7.429988861083984,7.975956916809082,9.480545043945312
1716551992983520000,7.37652001953125,-12.447722434997559,5.299294948577881,9.373876571655273
1716551992993186600,7.3861865234375,-1.1971299648284912,6.556985855102539,6.499685287475586
1716551993002853400,7.395853271484375,1.519996166229248,6.491868019104004,5.588224411010742
1716551993012520200,7.405520263671875,1.8453748226165771,4.70333194732666,5.584819316864014
1716551993022187000,7.41518701171875,1.805359125137329,1.7531061172485352,5.765087127685547
1716551993031853800,7.424853759765625,1.7855417728424072,-7.735650062561035,3.8554606437683105
1716551993041520600,7.434520751953125,6.331573009490967,-29.887088775634766,-2.8557674884796143
1716551993051187200,7.444187255859375,6.780383110046387,-50.34596633911133,-10.223151206970215
1716551993060854000,7.45385400390625,7.159270763397217,-54.187477111816406,-15.59555721282959
1716551993070520800,7.463520751953125,2.8531837463378906,-39.854034423828125,-14.916743278503418
1716551993080187600,7.473187744140625,-2.6213409900665283,-22.78097152709961,-10.16624927520752
1716551993089854500,7.4828544921875,-5.142035484313965,-13.179414749145508,-6.521742343902588
1716551993099521300,7.492521240234375,-4.84841251373291,-7.185094833374023,-3.863337516784668
1716551993109188000,7.50218798828125,0.4977284073829651,-4.014835357666016,-1.627469539642334
1716551993118854700,7.511854736328125,0.9072846174240112,-1.7221479415893555,-1.7928743362426758
1716551993128521500,7.521521484375,0.7073692083358765,-0.3323993682861328,-2.0159225463867188
1716551993138188300,7.531188232421875,0.6497653126716614,0.9971084594726562,-1.7829861640930176
1716551993147855000,7.540855224609375,0.6103876829147339,2.5012097358703613,-1.2006464004516602
1716551993157522000,7.55052197265625,-0.037800759077072144,4.124361515045166,-0.6340293884277344
1716551993167188500,7.5601884765625,-1.0950450897216797,5.743027210235596,-0.04005622863769531
1716551993176855300,7.569855224609375,-2.83992338180542,6.990814208984375,0.7029008865356445
1716551993186522000,7.579522216796875,-3.9674956798553467,7.784129619598389,1.842592477798462
1716551993196189000,7.58918896484375,-3.176982879638672,8.137228012084961,3.134854793548584
1716551993205855700,7.598855712890625,-1.4203317165374756,8.204895973205566,4.048699378967285
1716551993215522600,7.6085224609375,0.32935595512390137,8.380256652832031,4.6336669921875
1716551993225189000,7.618189208984375,1.0771665573120117,8.734850883483887,4.967339515686035
1716551993234856000,7.62785595703125,1.499804139137268,9.07490062713623,5.0761799812316895
1716551993244522800,7.637522705078125,2.0275511741638184,9.268808364868164,5.197096824645996
1716551993254189600,7.647189453125,2.9866645336151123,9.177985191345215,5.486807346343994
1716551993263856400,7.6568564453125,3.889061450958252,9.026721954345703,5.9417572021484375
1716551993273523200,7.666523193359375,4.152566909790039,8.977206230163574,6.074383735656738
1716551993283189800,7.676189697265625,3.940742015838623,8.84201431274414,6.067288398742676
1716551993292856600,7.685856689453125,3.1584479808807373,8.760738372802734,5.742003917694092
1716551993302523400,7.6955234375,2.044278144836426,8.682082176208496,5.765695095062256
1716551993312190200,7.705190185546875,1.5117132663726807,8.709322929382324,5.895822525024414
1716551993321857000,7.71485693359375,1.0653209686279297,8.813681602478027,5.869330883026123
1716551993331523600,7.724523681640625,0.5966894626617432,8.912421226501465,5.526525974273682
1716551993341190400,7.7341904296875,-5.476213455200195,9.893760681152344,5.180522441864014
1716551993350857200,7.743857177734375,-6.8366851806640625,9.89081859588623,2.9285383224487305
1716551993360524000,7.75352392578125,-2.992128372192383,7.916836261749268,2.092792510986328
1716551993370190800,7.76319091796875,-0.7761938571929932,6.923314571380615,1.8755546808242798
1716551993379857700,7.772857666015625,0.385675311088562,6.694643974304199,1.9981268644332886
1716551993389524500,7.7825244140625,1.1940264701843262,6.408421516418457,1.9104981422424316
1716551993399191000,7.79219091796875,1.451921820640564,-1.9186458587646484,-3.5052742958068848
1716551993408857900,7.80185791015625,2.423726797103882,-31.204875946044922,-34.7845344543457
1716551993418524700,7.811524658203125,1.8708770275115967,-50.21146774291992,-47.07704544067383
1716551993428191500,7.82119140625,0.8834724426269531,-54.489017486572266,-32.791160583496094
1716551993437858300,7.8308583984375,2.093886375427246,-33.53670883178711,-16.742225646972656
1716551993447524900,7.84052490234375,1.7151477336883545,-14.430447578430176,-7.071062088012695
1716551993457191700,7.850191650390625,0.700810432434082,-5.873735427856445,-0.9674160480499268
1716551993466858500,7.8598583984375,-0.12640845775604248,-1.1123085021972656,1.8903462886810303
1716551993476525300,7.869525390625,-0.7688071131706238,1.349111557006836,2.9316344261169434
1716551993486192000,7.879192138671875,-0.9677737355232239,3.091857433319092,3.005915880203247
1716551993495858700,7.888858642578125,-0.7734547853469849,4.430874347686768,2.984645366668701
1716551993505525500,7.898525390625,-0.5444194674491882,5.530879020690918,2.6977367401123047
1716551993515192300,7.9081923828125,-0.24086779356002808,6.331768035888672,2.2059531211853027
1716551993524859100,7.917859130859375,0.2801303267478943,6.631561279296875,2.0186080932617188
1716551993534526000,7.92752587890625,0.8325247764587402,6.937328338623047,2.346985101699829
1716551993544192800,7.93719287109375,0.9824215173721313,7.160016059875488,2.9546830654144287
1716551993553859300,7.946859375,1.051978349685669,7.3224029541015625,3.6682095527648926
1716551993563526100,7.956526123046875,1.0356905460357666,7.458192348480225,4.438361167907715
1716551993573193000,7.96619287109375,0.9788517951965332,7.726831436157227,5.180266380310059
1716551993582859800,7.97585986328125,0.7711786031723022,8.037101745605469,5.79228401184082
1716551993592526600,7.985526611328125,0.4385758638381958,8.375383377075195,6.37428092956543
1716551993602193400,7.995193359375,-0.5208523273468018,8.74642276763916,7.160964012145996
1716551993611860000,8.00485986328125,-2.986435651779175,9.163290023803711,7.962174415588379
1716551993621526800,8.01452685546875,-3.2679872512817383,9.251116752624512,8.242271423339844
1716551993631193600,8.024193603515625,-0.6892082691192627,8.998319625854492,7.986683368682861
1716551993640860400,8.0338603515625,1.2665444612503052,8.771401405334473,7.774493217468262
1716551993650527200,8.04352734375,0.9512968063354492,8.435781478881836,8.101516723632812
1716551993660193800,8.05319384765625,0.6188727617263794,8.151259422302246,8.23574447631836
1716551993669860600,8.062860595703125,0.44787102937698364,7.999670028686523,8.288856506347656
1716551993679527400,8.07252734375,0.22053605318069458,7.797733306884766,8.452325820922852
1716551993689194200,8.0821943359375,0.05688697099685669,7.658908843994141,8.320324897766113
1716551993698861000,8.091861083984375,-0.9537278413772583,7.056371212005615,7.209412574768066
1716551993708527600,8.101527587890626,-9.524273872375488,4.067629814147949,5.792596817016602
1716551993718194400,8.1111943359375,-1.5635102987289429,4.742157936096191,5.398098945617676
1716551993727861200,8.120861328125,0.31180253624916077,1.0975522994995117,4.651371002197266
1716551993737528000,8.130528076171874,1.4004930257797241,-8.937865257263184,0.03471565246582031
1716551993747195000,8.14019482421875,3.4849462509155273,-27.945724487304688,-13.390275955200195
1716551993756861400,8.149861328125,7.024511337280273,-52.14175796508789,-31.526138305664062
1716551993766528300,8.1595283203125,6.901240825653076,-53.39640808105469,-25.448028564453125
1716551993776195000,8.169195068359375,2.43693208694458,-36.95933532714844,-12.915401458740234
1716551993785862000,8.17886181640625,-20.436153411865234,-11.969858169555664,-11.979957580566406
1716551993795528700,8.18852880859375,-1.4393932819366455,-6.920866966247559,-6.939132213592529
1716551993805195500,8.198195556640625,2.3974132537841797,-3.327655792236328,-3.79146671295166
1716551993814862000,8.207862060546875,2.4418764114379883,-1.2503938674926758,-2.906100273132324
1716551993824529000,8.21752880859375,2.6152734756469727,-0.7952909469604492,-3.1631665229797363
1716551993834195700,8.22719580078125,2.616591691970825,-0.8424367904663086,-3.2705941200256348
1716551993843862500,8.236862548828125,2.255150318145752,-0.23975753784179688,-2.8079562187194824
1716551993853529300,8.246529296875,1.6577606201171875,0.9581060409545898,-1.9669952392578125
1716551993863196000,8.25619580078125,1.1076066493988037,2.4847545623779297,-0.5778951644897461
1716551993872862700,8.26586279296875,0.34485670924186707,4.029638767242432,0.9326920509338379
1716551993882529500,8.275529541015626,-1.0434210300445557,5.593630790710449,2.3243603706359863
1716551993892196400,8.2851962890625,-5.3042988777160645,7.310959339141846,3.2787606716156006
1716551993901863200,8.29486328125,-4.93337869644165,7.687147617340088,4.4125075340271
1716551993911529700,8.30452978515625,-2.222388982772827,7.715277671813965,5.101634502410889
1716551993921196500,8.314196533203125,-0.24969008564949036,7.733273029327393,5.574825763702393
1716551993930863400,8.32386328125,0.7402199506759644,7.897881507873535,5.8442888259887695
1716551993940530200,8.3335302734375,1.0798888206481934,8.213126182556152,6.085967540740967
1716551993950197000,8.343197021484375,1.2837127447128296,8.44773006439209,6.135666370391846
1716551993959863600,8.352863525390624,1.4066590070724487,8.44784164428711,6.28730583190918
1716551993969530400,8.3625302734375,1.3618136644363403,8.114219665527344,6.676294803619385
1716551993979197200,8.372197265625,1.3775663375854492,7.766178131103516,7.202093124389648
1716551993988864000,8.381864013671875,1.6088231801986694,7.589391231536865,7.674617767333984
1716551993998530600,8.391530517578126,1.6783971786499023,7.413799285888672,7.846912384033203
1716551994008197400,8.401197265625,1.7817933559417725,7.298553943634033,8.225512504577637
1716551994017864200,8.4108642578125,1.7159950733184814,7.102646827697754,8.834352493286133
1716551994027531000,8.420531005859376,1.8452022075653076,6.913268089294434,9.503804206848145
1716551994037197800,8.43019775390625,1.6906734704971313,6.934795379638672,9.338423728942871
1716551994046864600,8.43986474609375,1.2630071640014648,7.185691833496094,8.841821670532227
1716551994056531200,8.44953125,0.8583464622497559,7.678703308105469,7.74797248840332
1716551994066198000,8.459197998046875,-0.0036215782165527344,8.167557716369629,5.780429840087891
1716551994075864800,8.46886474609375,-5.240333557128906,7.178868770599365,3.6081748008728027
1716551994085531600,8.47853173828125,-5.584017753601074,5.869287490844727,2.647996425628662
1716551994095198200,8.4881982421875,-1.2462364435195923,4.943175315856934,2.461897850036621
1716551994104865000,8.497864990234374,0.9438666701316833,1.72412109375,1.9881917238235474
1716551994114531800,8.50753173828125,2.367344379425049,-14.793221473693848,-8.830366134643555
1716551994124198700,8.51719873046875,3.4590587615966797,-37.64283752441406,-31.70212173461914
1716551994133865500,8.526865478515624,-1.080448865890503,-54.91892623901367,-39.26825714111328
1716551994143532000,8.536531982421875,-2.379599094390869,-54.05274200439453,-27.055524826049805
1716551994153198800,8.54619873046875,-0.4560859203338623,-24.32229995727539,-13.972219467163086
1716551994162865700,8.55586572265625,-0.6191101670265198,-7.202105522155762,-8.670524597167969
1716551994172532500,8.565532470703126,-0.570625901222229,-0.6119632720947266,-4.237806797027588
1716551994182199300,8.57519921875,-0.8155348896980286,2.5538573265075684,-1.635697364807129
1716551994191865900,8.584865966796874,-0.3414992094039917,3.9125514030456543,-0.31981754302978516
1716551994201532700,8.59453271484375,-0.18004119396209717,4.953866004943848,0.02389812469482422
1716551994211199500,8.604199462890625,-0.08422347903251648,5.363401412963867,0.2748122215270996
1716551994220866300,8.6138662109375,0.27479201555252075,5.856889247894287,0.5196342468261719
1716551994230533000,8.623533203125,0.5252546072006226,6.311655044555664,1.0270617008209229
1716551994240199700,8.63319970703125,0.7724151611328125,6.71784782409668,1.8227951526641846
1716551994249866500,8.642866455078124,0.7750795483589172,6.902120113372803,2.8012728691101074
1716551994259533300,8.652533203125,0.603742778301239,7.09600305557251,3.6864423751831055
1716551994269200100,8.6622001953125,0.3357408344745636,7.423162460327148,4.480097770690918
1716551994278867000,8.671866943359374,0.2084904909133911,7.714942932128906,5.121089935302734
1716551994288533500,8.681533447265625,0.23674476146697998,8.010863304138184,5.6655988693237305
1716551994298200300,8.691200439453125,0.3354748487472534,8.240335464477539,6.036221981048584
1716551994307867100,8.7008671875,0.3807275891304016,8.420707702636719,6.273715972900391
1716551994317534000,8.710533935546875,0.29480740427970886,8.654242515563965,6.417818069458008
1716551994327200500,8.720200439453125,-1.00458562374115,8.842612266540527,7.106898307800293
1716551994336867300,8.729867431640624,-1.1426417827606201,8.945539474487305,7.625083923339844
1716551994346534100,8.7395341796875,0.11330422759056091,8.560315132141113,8.255739212036133
1716551994356201000,8.749200927734375,0.35460391640663147,8.328991889953613,8.400578498840332
1716551994365867800,8.75886767578125,0.15044525265693665,8.200417518615723,8.211149215698242
1716551994375534300,8.768534423828125,-0.28587669134140015,8.139283180236816,8.274576187133789
1716551994385201200,8.778201171875,-1.5428134202957153,8.205638885498047,8.503694534301758
1716551994394868000,8.787867919921876,-12.823596000671387,7.659613132476807,10.324284553527832
1716551994404534800,8.79753466796875,-10.566152572631836,5.152704238891602,8.848443984985352
1716551994414201300,8.807201416015625,-0.41822901368141174,6.273537635803223,6.589636325836182
1716551994423868200,8.8168681640625,2.6335766315460205,7.083281517028809,5.5845842361450195
1716551994433535000,8.826534912109375,2.7526745796203613,6.477635860443115,5.085853576660156
1716551994443201800,8.836201904296875,2.2960617542266846,5.690418720245361,4.91018009185791
1716551994452868600,8.84586865234375,3.310051202774048,3.085942268371582,4.960844039916992
1716551994462535200,8.85553515625,5.4069671630859375,-12.449206352233887,-0.2671778202056885
1716551994472202000,8.865201904296875,6.991339683532715,-42.17653274536133,-20.480302810668945
1716551994481868800,8.874868896484376,5.180695533752441,-66.259765625,-40.64378356933594
1716551994491535600,8.88453564453125,8.231729507446289,-60.01628112792969,-28.000560760498047
1716551994501202200,8.8942021484375,1.6604993343353271,-33.008277893066406,-12.814433097839355
1716551994510869000,8.903868896484376,-23.496376037597656,-7.8963823318481445,-8.173675537109375
1716551994520535800,8.913535888671875,1.597956657409668,-5.341629981994629,-3.751344680786133
1716551994530202600,8.92320263671875,1.646212100982666,-1.4094085693359375,-0.9128270149230957
1716551994539869400,8.932869384765626,1.221880555152893,1.1190400123596191,0.4731936454772949
1716551994549536000,8.942535888671875,1.2858686447143555,2.6751298904418945,0.85528564453125
1716551994559202800,8.952202880859375,1.6436614990234375,3.3926358222961426,0.8460140228271484
1716551994568869600,8.96186962890625,1.22500479221344,3.7510647773742676,0.9016885757446289
1716551994578536400,8.971536376953125,0.4958346486091614,4.225687026977539,1.4635601043701172
1716551994588203000,8.981203125,-0.12152673304080963,4.870556354522705,2.1707191467285156
1716551994597869800,8.990869873046876,-1.6831936836242676,5.923030376434326,2.71391224861145
1716551994607536600,9.00053662109375,-5.747976303100586,7.4666595458984375,3.0969629287719727
1716551994617203500,9.010203369140624,-3.8824734687805176,7.555599212646484,4.128775596618652
1716551994626870000,9.0198701171875,-1.6850441694259644,7.5526652336120605,4.880992889404297
1716551994636536800,9.029536865234375,0.21851833164691925,7.875930309295654,5.442964553833008
1716551994646203600,9.03920361328125,1.1743762493133545,8.129995346069336,5.965518474578857
1716551994655870500,9.048870361328126,1.658936858177185,8.273463249206543,6.256824970245361
1716551994665537000,9.058537109375,2.111440896987915,8.45907211303711,6.333179950714111
1716551994675203800,9.068203857421874,2.3872973918914795,8.526013374328613,6.383203506469727
1716551994684870700,9.07787060546875,2.642153739929199,8.515522003173828,6.385976314544678
1716551994694537500,9.087537353515625,2.6426918506622314,8.4437894821167,6.502684593200684
1716551994704204300,9.097204345703124,2.7444865703582764,8.27634334564209,6.729053497314453
1716551994713870800,9.106870849609376,2.5006003379821777,8.136903762817383,6.9499640464782715
1716551994723537700,9.11653759765625,2.2871036529541016,8.1257905960083,6.923376083374023
1716551994733204500,9.12620458984375,1.8738985061645508,8.14627456665039,6.88652229309082
1716551994742871300,9.135871337890626,1.6366652250289917,8.08864974975586,6.870660305023193
1716551994752537900,9.145537841796875,1.4688923358917236,7.858202934265137,7.701932907104492
1716551994762204700,9.15520458984375,1.2811305522918701,7.976461887359619,7.544562816619873
1716551994771871500,9.16487158203125,1.076083779335022,8.169381141662598,6.5181379318237305
1716551994781538300,9.174538330078125,-1.3635987043380737,7.992807388305664,4.032548904418945
1716551994791205000,9.184205078125,-12.170181274414062,5.554657936096191,1.141397476196289
1716551994800871700,9.19387158203125,-6.155986785888672,4.879676342010498,1.1304078102111816
1716551994810538500,9.20353857421875,-1.7834689617156982,3.3835458755493164,1.2013798952102661
1716551994820205300,9.213205322265624,1.0327101945877075,-11.077685356140137,-8.740799903869629
1716551994829872000,9.2228720703125,4.213338851928711,-33.73860549926758,-32.32447052001953
1716551994839538700,9.23253857421875,1.9902423620224,-48.45155334472656,-39.82948684692383
1716551994849205500,9.24220556640625,2.2257089614868164,-50.09275817871094,-24.499652862548828
1716551994858872300,9.251872314453125,2.715916872024536,-27.71307373046875,-13.351028442382812
1716551994868539100,9.2615390625,-0.6304972171783447,-10.547008514404297,-8.309000015258789
1716551994878205700,9.271205810546874,-1.6125531196594238,-3.036989212036133,-3.824799060821533
1716551994887872500,9.28087255859375,-1.9230170249938965,0.3816232681274414,-0.8741693496704102
1716551994897539300,9.290539306640625,-1.8184781074523926,1.73337984085083,0.33399295806884766
1716551994907206100,9.3002060546875,-1.816633939743042,2.140131950378418,0.504230260848999
1716551994916872700,9.309872802734375,-1.401160717010498,2.76778507232666,0.26154041290283203
1716551994926539500,9.31953955078125,-0.7971437573432922,3.835477828979492,0.06983661651611328
1716551994936206300,9.329206298828124,-0.42951148748397827,5.022168159484863,0.27253150939941406
1716551994945873200,9.338873046875,0.007945209741592407,5.725392818450928,1.128462314605713
1716551994955539700,9.348539794921875,0.2518155574798584,6.132539749145508,2.143678665161133
1716551994965206500,9.35820654296875,0.33883240818977356,6.54109525680542,3.19980525970459
1716551994974873300,9.367873291015625,0.36686602234840393,6.94587516784668,4.0331292152404785
1716551994984540200,9.3775400390625,0.2782915234565735,7.274723529815674,4.904073238372803
1716551994994206700,9.387206787109376,0.2660042941570282,7.6588053703308105,5.5326433181762695
1716551995003873500,9.39687353515625,0.2972424030303955,8.060452461242676,5.9070143699646
1716551995013540400,9.406540283203125,0.28919535875320435,8.334030151367188,6.2407379150390625
1716551995023207200,9.416207275390626,-0.019984886050224304,8.689651489257812,6.5086164474487305
1716551995032873700,9.425873779296875,-2.1372172832489014,9.18525218963623,7.124405860900879
1716551995042540500,9.43554052734375,-3.895833969116211,9.802926063537598,7.983587741851807
1716551995052207400,9.445207275390626,-1.0329149961471558,9.641416549682617,7.8980793952941895
1716551995061874200,9.454874267578125,1.1048332452774048,9.139785766601562,8.054193496704102
1716551995071540700,9.464540771484375,1.1681106090545654,8.543915748596191,8.389537811279297
1716551995081207600,9.47420751953125,0.8265906572341919,8.261434555053711,8.508874893188477
1716551995090874400,9.483874267578125,0.35677850246429443,8.081589698791504,8.254598617553711
1716551995100541200,9.493541259765625,0.03244855999946594,8.038310050964355,7.942138671875
1716551995110207700,9.503207763671876,-0.2878284752368927,8.197166442871094,7.50838565826416
1716551995119874600,9.51287451171875,-3.2935590744018555,8.013858795166016,7.624195575714111
1716551995129541400,9.522541259765624,-13.120870590209961,4.4574785232543945,6.725282669067383
1716551995139208200,9.532208251953126,-3.6113529205322266,5.997771263122559,5.307034969329834
1716551995148875000,9.541875,1.1738905906677246,7.0712890625,4.861719608306885
1716551995158541600,9.55154150390625,1.6531448364257812,6.314427375793457,4.930030822753906
1716551995168208400,9.56120849609375,1.8875434398651123,3.437594413757324,5.4717278480529785
1716551995177875200,9.570875244140625,3.5495123863220215,-9.88762378692627,2.504516839981079
1716551995187541800,9.580541748046874,9.217653274536133,-41.168357849121094,-15.625475883483887
1716551995197208600,9.59020849609375,8.157492637634277,-68.7619857788086,-33.15103530883789
1716551995206875400,9.59987548828125,4.449601173400879,-61.43397521972656,-20.816328048706055
1716551995216542200,9.609542236328124,-0.7067424058914185,-38.002017974853516,-8.796688079833984
1716551995226209000,9.619208984375,-19.20421600341797,-11.529994010925293,-7.046658515930176
1716551995235875600,9.62887548828125,1.5549466609954834,-6.302936553955078,-3.8124728202819824
1716551995245542400,9.63854248046875,2.1758244037628174,-1.740168571472168,-2.2968106269836426
1716551995255209200,9.648209228515626,2.0675153732299805,0.5277109146118164,-1.1024270057678223
1716551995264875800,9.657875732421875,2.2995872497558594,1.559372901916504,-0.8939414024353027
1716551995274542600,9.66754248046875,2.894380569458008,1.9132280349731445,-1.2267508506774902
1716551995284209400,9.67720947265625,3.156911849975586,2.318030834197998,-1.41571044921875
1716551995293876200,9.686876220703125,2.506261110305786,2.97523832321167,-1.0468478202819824
1716551995303543000,9.69654296875,1.7182116508483887,3.8057823181152344,-0.03607797622680664
1716551995313209600,9.706209716796875,1.2427421808242798,4.679224967956543,1.056450366973877
1716551995322876400,9.71587646484375,0.9015131592750549,5.524501323699951,1.9913098812103271
1716551995332543200,9.725543212890624,0.058380499482154846,6.500919818878174,3.0000150203704834
1716551995342209800,9.735209716796875,-1.6824544668197632,7.6694207191467285,3.765610456466675
1716551995351876600,9.744876708984375,-4.699069499969482,8.758376121520996,4.29105281829834
1716551995361543400,9.75454345703125,-3.361703872680664,8.922910690307617,4.721726894378662
1716551995371210200,9.764210205078125,-1.5085406303405762,8.85891056060791,5.04752254486084
1716551995380876800,9.773876708984375,0.2584690749645233,8.907577514648438,5.093320846557617
1716551995390543600,9.783543701171874,1.063083291053772,9.10335922241211,5.133301734924316
1716551995400210400,9.79321044921875,1.1904735565185547,9.264287948608398,5.121185302734375
1716551995409877200,9.802877197265625,1.1806813478469849,9.211743354797363,5.196318626403809
1716551995419543800,9.812543701171874,1.1424281597137451,9.021950721740723,5.402566432952881
1716551995429210600,9.822210693359375,0.9535549879074097,8.765732765197754,5.806796073913574
1716551995438877400,9.83187744140625,0.8266822695732117,8.487227439880371,6.328834056854248
1716551995448544300,9.841544189453124,-0.027508676052093506,8.350671768188477,7.022195816040039
1716551995458210800,9.8512109375,-6.858612537384033,8.447718620300293,7.820657730102539
1716551995467877600,9.860877685546875,-5.933582782745361,8.574267387390137,7.450925827026367
1716551995477544400,9.87054443359375,-1.7784326076507568,8.662239074707031,7.22219181060791
1716551995487211300,9.880211181640625,1.1756752729415894,8.443611145019531,6.980351448059082
1716551995496877800,9.8898779296875,2.076239585876465,7.302742004394531,5.311356544494629
1716551995506544600,9.899544677734376,1.1747450828552246,6.892649173736572,3.92122483253479
1716551995516211500,9.90921142578125,-1.0932002067565918,6.482427597045898,3.1805620193481445
1716551995525878000,9.9188779296875,-1.7351680994033813,6.096938133239746,2.735525131225586
1716551995535544800,9.928544921875,-0.41494858264923096,4.513915061950684,1.3197767734527588
1716551995545211600,9.938211669921875,2.235813617706299,-12.40727424621582,-14.886579513549805
1716551995554878500,9.94787841796875,2.6924214363098145,-34.4679069519043,-40.94059371948242
1716551995564545300,9.957545166015626,2.2809252738952637,-47.700599670410156,-37.32836151123047
1716551995574211800,9.9672119140625,0.9003104567527771,-44.15858459472656,-22.05804443359375
1716551995583878700,9.976878662109375,0.7483489513397217,-20.534481048583984,-12.875129699707031
1716551995593545500,9.98654541015625,0.30394792556762695,-8.517739295959473,-5.931288719177246
1716551995603212000,9.9962119140625,0.17079150676727295,-2.947646141052246,-0.7157912254333496
1716551995612878800,10.00587890625,-0.20425426959991455,-0.5970211029052734,1.4259014129638672
1716551995622545700,10.015545654296876,-0.5907971262931824,-0.027115821838378906,1.1910243034362793
1716551995632212500,10.02521240234375,-1.4005297422409058,0.020310401916503906,0.4100933074951172
1716551995641879000,10.034879150390625,-1.8046190738677979,0.23554039001464844,0.21179580688476562
1716551995651545900,10.0445458984375,-1.5235884189605713,1.4557437896728516,0.5256743431091309
1716551995661212700,10.054212646484375,-1.0023571252822876,2.8963751792907715,1.1297943592071533
1716551995670879500,10.06387939453125,-0.7697235345840454,4.266054153442383,1.8046071529388428
1716551995680546000,10.073546142578126,-0.43467721343040466,5.14280891418457,2.6219863891601562
1716551995690212900,10.083212890625,-0.17018520832061768,5.959742546081543,3.4916553497314453
1716551995699879700,10.092879638671874,0.0036856234073638916,6.500399589538574,4.46566915512085
1716551995709546200,10.102546142578126,0.27723127603530884,6.919327259063721,5.17573881149292
1716551995719213000,10.112213134765625,0.7359067797660828,7.259758949279785,5.803478717803955
1716551995728879900,10.1218798828125,1.0131653547286987,7.544748306274414,6.3501811027526855
1716551995738546700,10.131546630859376,1.0729467868804932,7.856326103210449,6.760819435119629
1716551995748213200,10.141213134765625,0.7137321829795837,8.14853286743164,6.9249444007873535
1716551995757880000,10.150880126953124,0.1627313196659088,8.632413864135742,7.278351306915283
1716551995767547000,10.160546875,-0.5815725326538086,8.971857070922852,7.677133560180664
1716551995777213700,10.170213623046875,-0.04131576418876648,8.751473426818848,8.111030578613281
1716551995786880300,10.17988037109375,0.764945387840271,8.292150497436523,8.051000595092773
1716551995796547000,10.189547119140625,1.0424370765686035,7.770323276519775,8.762384414672852
1716551995806214000,10.1992138671875,0.996131956577301,7.310749530792236,9.499351501464844
1716551995815880400,10.20888037109375,0.6384688019752502,7.093316555023193,10.045080184936523
1716551995825547300,10.21854736328125,0.588931143283844,7.098326206207275,10.293919563293457
1716551995835214000,10.228214111328125,0.5256540775299072,7.172953128814697,10.053924560546875
1716551995844881000,10.237880859375,-3.988496780395508,7.210348129272461,9.890825271606445
1716551995854547500,10.24754736328125,-8.039241790771484,4.406675338745117,7.583745002746582
1716551995864214300,10.25721435546875,-0.39894548058509827,5.834878921508789,5.518047332763672
1716551995873881000,10.266881103515624,1.5482823848724365,6.445124626159668,4.964725494384766
1716551995883548000,10.2765478515625,1.2479970455169678,5.383813858032227,5.080934524536133
1716551995893214500,10.28621435546875,2.2101097106933594,0.5127592086791992,5.260400772094727
1716551995902881300,10.29588134765625,3.134528875350952,-14.786731719970703,-3.375452756881714
1716551995912548000,10.305548095703125,4.274662971496582,-39.82388687133789,-22.42577362060547
1716551995922215000,10.31521484375,9.464631080627441,-62.95397186279297,-35.526588439941406
1716551995931881500,10.324881591796874,5.578319072723389,-55.39610290527344,-21.226259231567383
1716551995941548300,10.33454833984375,-12.354044914245605,-30.254093170166016,-10.993913650512695
1716551995951215000,10.344215087890625,-11.190314292907715,-11.317862510681152,-7.942146301269531
1716551995960881700,10.353881591796876,3.6962153911590576,-5.28856086730957,-5.714317321777344
1716551995970548500,10.363548583984375,3.256213665008545,-0.9947071075439453,-4.55657958984375
1716551995980215300,10.37321533203125,2.8982725143432617,0.9774703979492188,-3.271303653717041
1716551995989882000,10.382882080078126,2.5684049129486084,1.5315990447998047,-2.558116912841797
1716551995999548700,10.392548583984375,2.3456785678863525,1.5922045707702637,-2.2086262702941895
1716551996009215500,10.402215576171875,2.2593905925750732,2.109038829803467,-1.7672944068908691
1716551996018882300,10.41188232421875,2.2998151779174805,2.9583730697631836,-1.0234322547912598
1716551996028549000,10.421549072265625,2.3478386402130127,3.8978466987609863,-0.1088552474975586
1716551996038215700,10.431215576171875,2.15522837638855,5.004584789276123,0.8543248176574707
1716551996047882500,10.440882568359376,1.52456796169281,6.155181884765625,1.9621381759643555
1716551996057549300,10.45054931640625,-0.07348820567131042,7.331944465637207,3.0135152339935303
1716551996067216000,10.4602158203125,-3.3213179111480713,8.488786697387695,3.8906140327453613
1716551996076882700,10.469882568359376,-7.836869716644287,9.592061042785645,4.5807576179504395
1716551996086549500,10.479549560546875,-4.465791702270508,9.102961540222168,5.099199295043945
1716551996096216300,10.48921630859375,-1.0553102493286133,8.815070152282715,5.350488662719727
1716551996105883000,10.4988828125,1.0535839796066284,8.747027397155762,5.3602728843688965
1716551996115549700,10.5085498046875,1.3993582725524902,8.837264060974121,5.334465026855469
1716551996125216500,10.518216552734375,1.2780015468597412,8.877837181091309,5.353213310241699
1716551996134883000,10.527883056640626,1.3109956979751587,8.845726013183594,5.442947864532471
1716551996144550000,10.5375498046875,1.1858546733856201,8.623828887939453,5.632652759552002
1716551996154216700,10.547216796875,1.0762922763824463,8.314286231994629,5.9964470863342285
1716551996163883500,10.556883544921876,0.9891598224639893,8.009163856506348,6.547599792480469
1716551996173550000,10.566550048828125,1.1567529439926147,7.7184624671936035,7.2392578125
1716551996183217000,10.576216796875,1.4050012826919556,7.526910781860352,8.06866455078125
1716551996192883700,10.5858837890625,0.7941317558288574,7.2486796379089355,9.149160385131836
1716551996202550500,10.595550537109375,-2.990006923675537,7.204791069030762,9.963396072387695
1716551996212217000,10.605217041015624,-1.7429289817810059,7.110808849334717,9.673229217529297
1716551996221884000,10.6148837890625,0.14590072631835938,7.014645099639893,8.716501235961914
1716551996231550700,10.62455078125,0.8192571997642517,6.96543025970459,6.25382661819458
1716551996241217300,10.63421728515625,1.0943678617477417,6.808768272399902,4.626533508300781
1716551996250884000,10.643884033203125,0.5852500200271606,6.438004493713379,3.905970573425293
1716551996260551000,10.653551025390625,0.8174724578857422,5.218782424926758,3.5844433307647705
1716551996270217700,10.6632177734375,0.05666893720626831,-0.19031333923339844,1.6328284740447998
1716551996279884300,10.67288427734375,0.49316391348838806,-17.363542556762695,-11.44796371459961
1716551996289551000,10.682551025390625,-0.4220231771469116,-39.374488830566406,-35.99732971191406
1716551996299218000,10.692218017578124,0.035434842109680176,-53.57398223876953,-36.36466979980469
1716551996308884500,10.701884521484375,1.6161179542541504,-48.85496139526367,-22.666017532348633
1716551996318551300,10.71155126953125,-0.5160319805145264,-19.338253021240234,-15.123023986816406
1716551996328218000,10.721218017578124,-1.4751014709472656,-6.09051513671875,-10.315132141113281
1716551996337885000,10.730885009765625,-0.9731249809265137,-0.45266151428222656,-4.871931076049805
1716551996347551500,10.740551513671875,-0.3064245581626892,1.7294158935546875,-1.75327730178833
1716551996357218300,10.75021826171875,-0.30884599685668945,1.7374382019042969,-0.811345100402832
1716551996366885000,10.759885009765625,-0.7253607511520386,1.562748908996582,-0.7637934684753418
1716551996376552000,10.769552001953125,-0.8719284534454346,2.156716823577881,-1.0325627326965332
1716551996386218500,10.779218505859374,-0.8036892414093018,3.366769313812256,-1.0214648246765137
1716551996395885300,10.78888525390625,-0.4882040321826935,4.2347636222839355,-0.29921627044677734
1716551996405552000,10.79855224609375,-0.0906233936548233,4.866189002990723,0.8579921722412109
1716551996415218700,10.80821875,0.08416281640529633,5.398548603057861,2.1395037174224854
1716551996424885500,10.817885498046875,-0.007715824991464615,5.73272705078125,3.4104042053222656
1716551996434552300,10.82755224609375,-0.1410113424062729,6.2465291023254395,4.352145195007324
1716551996444219100,10.83721923828125,-0.2889117896556854,6.704398155212402,5.140940189361572
1716551996453885700,10.8468857421875,-0.29687488079071045,7.18374490737915,5.790919303894043
1716551996463552500,10.856552490234375,-0.2003878355026245,7.667861461639404,6.193106651306152
1716551996473219300,10.86621923828125,0.059972748160362244,7.99900484085083,6.530185699462891
1716551996482886000,10.875885986328125,0.0810256153345108,8.251446723937988,6.92923641204834
1716551996492552700,10.885552734375,-0.3418567180633545,8.70037841796875,7.268493175506592
1716551996502219500,10.895219482421876,-2.4395945072174072,9.21083927154541,8.08678150177002
1716551996511886300,10.90488623046875,-4.086460590362549,9.192623138427734,9.012794494628906
1716551996521553000,10.914552978515625,-2.9558849334716797,8.560851097106934,10.126005172729492
1716551996531219700,10.9242197265625,0.6065804958343506,8.095756530761719,9.76584243774414
1716551996540886500,10.933886474609375,1.2628957033157349,7.919916152954102,9.7122802734375
1716551996550553300,10.94355322265625,1.0242860317230225,7.760466575622559,9.610099792480469
1716551996560220000,10.953219970703126,0.700573742389679,7.826010704040527,9.097829818725586
1716551996569886700,10.96288671875,0.6116282343864441,7.793431282043457,8.727755546569824
1716551996579553500,10.972553466796874,0.2481483817100525,7.554179668426514,8.666728019714355
1716551996589220000,10.98222021484375,-0.08061820268630981,7.065298080444336,7.671265602111816
1716551996598887000,10.991886962890625,-0.7494091391563416,5.894165992736816,6.797239303588867
1716551996608553700,11.0015537109375,-2.652738094329834,4.452621936798096,6.8203125
1716551996618220500,11.011220458984376,-1.046558141708374,2.8283681869506836,6.580892086029053
1716551996627887000,11.02088720703125,0.23566842079162598,-7.298015594482422,2.8528037071228027
1716551996637554000,11.030553955078124,3.7399721145629883,-26.37952995300293,-10.37714958190918
1716551996647220700,11.040220703125,5.714986324310303,-54.09345626831055,-30.151966094970703
1716551996656887300,11.04988720703125,8.651206016540527,-60.524391174316406,-28.47008514404297
1716551996666554000,11.05955419921875,6.31620979309082,-45.55485534667969,-14.076641082763672
1716551996676221000,11.069220947265626,-20.5008544921875,-11.689533233642578,-14.16594409942627
1716551996685887500,11.078887451171875,-7.682175159454346,-4.653715133666992,-9.829176902770996
1716551996695554300,11.08855419921875,1.965108871459961,-2.675784111022949,-4.954407215118408
1716551996705221000,11.09822119140625,2.392991065979004,-1.0316553115844727,-3.816934108734131
1716551996714888000,11.107887939453125,2.8746094703674316,-0.5375823974609375,-4.264232158660889
1716551996724554500,11.117554443359374,3.2168426513671875,-0.024353981018066406,-4.559477806091309
1716551996734221300,11.12722119140625,2.914834499359131,0.9638123512268066,-4.341992378234863
1716551996743888100,11.13688818359375,2.066709041595459,2.3977580070495605,-3.1936402320861816
1716551996753555000,11.146554931640624,1.4191811084747314,3.676325798034668,-1.7392120361328125
1716551996763221500,11.156221435546875,0.9428771734237671,4.9485273361206055,-0.46210241317749023
1716551996772888300,11.165888427734375,0.31105002760887146,6.09481143951416,0.47100114822387695
1716551996782555100,11.17555517578125,-0.7147102355957031,7.320273399353027,1.864867925643921
1716551996792221700,11.1852216796875,-2.174534797668457,8.315176010131836,3.0951132774353027
1716551996801888500,11.194888427734375,-5.528493404388428,8.949363708496094,4.225870609283447
1716551996811555300,11.204555419921874,-2.7134363651275635,8.582450866699219,4.876387119293213
1716551996821222100,11.21422216796875,-0.27583831548690796,8.57105827331543,5.119325637817383
1716551996830888700,11.223888671875,0.6310826539993286,8.521862030029297,5.385489463806152
1716551996840555500,11.233555419921874,0.8593916296958923,8.472086906433105,5.68378210067749
1716551996850222300,11.243222412109375,1.0069419145584106,8.575879096984863,5.770185470581055
1716551996859889000,11.252888916015625,1.1157841682434082,8.771657943725586,5.767165660858154
1716551996869555700,11.2625556640625,1.1140483617782593,8.570289611816406,6.118431091308594
1716551996879222500,11.272222412109375,1.2166430950164795,8.221003532409668,6.583675384521484
1716551996888889300,11.281889404296875,1.5066580772399902,7.830502033233643,7.167148113250732
1716551996898556000,11.291555908203126,1.693809986114502,7.369670867919922,8.057174682617188
1716551996908222700,11.30122265625,1.6542657613754272,6.7445549964904785,9.249786376953125
1716551996917889500,11.3108896484375,-0.5607651472091675,5.886338710784912,11.50873851776123
1716551996927556000,11.32055615234375,-2.7393686771392822,5.295363426208496,12.703883171081543
1716551996937223000,11.330222900390625,-2.3050365447998047,5.562463283538818,12.243940353393555
1716551996946889700,11.3398896484375,-1.1291255950927734,6.465165615081787,9.946182250976562
1716551996956556300,11.349556396484376,-0.8166090846061707,7.47442102432251,6.372892379760742
1716551996966223000,11.35922314453125,-0.5225809216499329,7.473572731018066,4.408525466918945
1716551996975890000,11.368889892578125,-0.4590942859649658,7.334793567657471,3.644636631011963
1716551996985556700,11.378556640625,-0.19585907459259033,6.6812310218811035,3.4342007637023926
1716551996995223300,11.388223388671875,0.19328618049621582,4.144071102142334,3.299333095550537
1716551997004890000,11.39789013671875,1.3044188022613525,-7.234495162963867,-2.751559257507324
1716551997014557000,11.407556884765626,2.5322976112365723,-25.24791145324707,-21.94019317626953
1716551997024223500,11.417223388671875,2.5645382404327393,-45.77306365966797,-40.564998626708984
1716551997033890300,11.426890380859374,1.2660776376724243,-54.78472900390625,-29.612932205200195
1716551997043557000,11.43655712890625,4.078294277191162,-40.58412170410156,-15.170808792114258
1716551997053224000,11.446223876953125,0.052574217319488525,-15.002678871154785,-9.424837112426758
1716551997062890500,11.455890380859374,-0.2334359884262085,-5.2270660400390625,-6.725309371948242
1716551997072557300,11.465557373046876,0.5661491751670837,-0.22963428497314453,-3.860787868499756
1716551997082224000,11.47522412109375,1.1969807147979736,1.7669620513916016,-2.320315361022949
1716551997091891000,11.484890869140624,0.8664529323577881,1.8976564407348633,-1.6654820442199707
1716551997101557500,11.4945576171875,0.08877190947532654,1.8567752838134766,-1.118229866027832
1716551997111224300,11.504224365234375,-0.6573721170425415,2.885504722595215,-0.7627658843994141
1716551997120891100,11.51389111328125,-0.9244283437728882,3.8903794288635254,-0.6335339546203613
1716551997130557700,11.5235576171875,-0.9007705450057983,4.7473063468933105,0.012285232543945312
1716551997140224500,11.533224609375,-0.7103976011276245,5.559067726135254,0.9279096126556396
1716551997149891300,11.542891357421874,-0.6660277247428894,6.197949409484863,2.0174496173858643
1716551997159558100,11.55255810546875,-0.6986580491065979,6.885228633880615,3.042064905166626
1716551997169224700,11.562224609375,-0.8136661052703857,7.471639633178711,4.002089500427246
1716551997178891500,11.5718916015625,-0.7752034664154053,7.81306791305542,4.704561233520508
1716551997188558300,11.581558349609375,-0.7159388065338135,8.05687141418457,5.26317834854126
1716551997198225000,11.591224853515625,-0.6497343182563782,8.194725036621094,5.686437606811523
1716551997207891700,11.6008916015625,-0.7290303707122803,8.347105979919434,6.0714921951293945
1716551997217558500,11.61055859375,-1.4530012607574463,8.590193748474121,6.316792964935303
1716551997227225000,11.62022509765625,-3.055379629135132,8.844133377075195,6.759514808654785
1716551997236892000,11.629891845703124,-4.4488725662231445,9.336871147155762,7.465418815612793
1716551997246558700,11.639558837890625,-4.007646083831787,9.473567962646484,8.17155647277832
1716551997256225500,11.6492255859375,-1.4869029521942139,8.892324447631836,8.371743202209473
1716551997265892000,11.65889208984375,0.8381743431091309,8.271316528320312,8.747425079345703
1716551997275559000,11.668558837890625,0.9681722521781921,8.065301895141602,8.609216690063477
1716551997285225700,11.678225830078125,0.7086730599403381,7.767286777496338,8.930228233337402
1716551997294892300,11.687892333984376,0.5707464218139648,7.651383876800537,8.733487129211426
1716551997304559000,11.69755908203125,0.3008043169975281,7.531014442443848,8.73438835144043
1716551997314226000,11.707225830078125,-2.4866158962249756,7.116378307342529,8.878734588623047
1716551997323892700,11.716892822265624,-6.707847595214844,4.993346214294434,7.232990264892578
1716551997333559300,11.726559326171875,-1.1775708198547363,5.143933296203613,6.918964385986328
1716551997343226000,11.73622607421875,1.0404528379440308,5.111157417297363,7.061485767364502
1716551997352893000,11.745892822265626,1.171089768409729,3.716503620147705,7.539475917816162
1716551997362559500,11.7555595703125,1.3041954040527344,-2.559825897216797,6.401603698730469
1716551997372226300,11.765226318359375,3.5489437580108643,-19.258747100830078,-5.2673773765563965
1716551997381893000,11.77489306640625,7.888241767883301,-47.95994186401367,-27.64693832397461
1716551997391560000,11.784559814453125,7.039833068847656,-64.00690460205078,-35.96116638183594
1716551997401226500,11.7942265625,7.021784782409668,-57.986454010009766,-23.830093383789062
1716551997410893300,11.803893310546876,-4.176663398742676,-20.105514526367188,-19.50672721862793
1716551997420560100,11.81356005859375,-11.878205299377441,-4.882779121398926,-10.240234375
1716551997430227000,11.82322705078125,0.34689950942993164,-2.1454992294311523,-3.2605109214782715
1716551997439893500,11.8328935546875,1.3447132110595703,-0.4933280944824219,-0.8346648216247559
1716551997449560300,11.842560302734375,1.3732519149780273,1.070746898651123,-1.3455638885498047
1716551997459227100,11.85222705078125,0.8576197028160095,1.7429423332214355,-2.7219724655151367
1716551997468893700,11.861893798828126,-0.06207770109176636,2.069981575012207,-3.776763916015625
1716551997478560500,11.871560546875,-4.258884429931641,3.1650938987731934,-3.738272190093994
1716551997488227300,11.881227294921874,-7.0667572021484375,4.282114028930664,-2.5413308143615723
1716551997497894000,11.890893798828126,-2.9404120445251465,4.677241325378418,0.2286825180053711
1716551997507560700,11.900560791015625,-0.5540916919708252,5.4821577072143555,1.8414483070373535
1716551997517227500,11.9102275390625,0.4078633785247803,6.142946243286133,2.9160635471343994
1716551997526894300,11.919894287109376,0.862076461315155,6.762115955352783,3.8765785694122314
1716551997536561000,11.929560791015625,1.0601524114608765,7.1509833335876465,4.8023176193237305
1716551997546227700,11.939227783203124,1.0657142400741577,7.528343200683594,5.396211624145508
1716551997555894500,11.94889453125,1.0389398336410522,7.775260925292969,5.842744827270508
1716551997565561000,11.95856103515625,1.1008356809616089,7.928162574768066,6.151848793029785
1716551997575228000,11.968227783203124,1.3631114959716797,8.105147361755371,6.509357452392578
1716551997584894700,11.977894775390626,1.9547449350357056,8.216080665588379,6.6591572761535645
1716551997594561300,11.987561279296875,2.835108757019043,7.756800651550293,7.406447410583496
1716551997604228000,11.99722802734375,4.827580451965332,6.791680812835693,8.785589218139648
1716551997613895000,12.00689501953125,5.177158832550049,6.127939224243164,9.556696891784668
1716551997623561700,12.016561767578125,3.4707894325256348,5.7919158935546875,10.517032623291016
1716551997633228300,12.026228271484374,1.581176996231079,5.797108173370361,11.110265731811523
1716551997642895000,12.03589501953125,-1.813759446144104,6.27041482925415,11.063929557800293
1716551997652562000,12.04556201171875,-7.998316287994385,7.280008792877197,11.203950881958008
1716551997662228500,12.055228515625,-5.154677867889404,7.75824499130249,9.859121322631836
1716551997671895300,12.064895263671875,-1.9881761074066162,8.39490032196045,7.795784950256348
1716551997681562000,12.07456201171875,-0.06946545839309692,8.769705772399902,5.643912315368652
1716551997691229000,12.08422900390625,0.7062816023826599,8.806228637695312,3.737790107727051
1716551997700895500,12.0938955078125,1.2298249006271362,8.873230934143066,2.718494176864624
1716551997710562300,12.103562255859375,0.9229404330253601,8.579169273376465,2.2889082431793213
1716551997720229000,12.11322900390625,-0.24340510368347168,8.020594596862793,1.9628733396530151
1716551997729896000,12.12289599609375,-0.8935586214065552,6.510069847106934,1.7364866733551025
1716551997739562500,12.1325625,0.8469258546829224,-8.207162857055664,-4.186630725860596
1716551997749229300,12.142229248046876,4.226665019989014,-36.332645416259766,-24.99622917175293
1716551997758896000,12.151896240234375,5.699533939361572,-54.09071731567383,-40.017234802246094
1716551997768562700,12.161562744140625,0.3221566677093506,-57.62742233276367,-27.111757278442383
1716551997778229500,12.1712294921875,3.20654034614563,-41.953121185302734,-9.32927417755127
1716551997787896300,12.180896240234375,-1.3685169219970703,-14.31682300567627,-4.713911533355713
1716551997797563100,12.190563232421875,-3.8812437057495117,-3.295760154724121,-4.461178302764893
1716551997807229700,12.200229736328126,-2.9151124954223633,1.5599699020385742,-3.5486583709716797
1716551997816896500,12.209896484375,-0.9313215017318726,3.815701484680176,-2.6266109943389893
1716551997826563300,12.219563232421875,0.33401912450790405,4.860371112823486,-2.281522274017334
1716551997836230000,12.22922998046875,0.8846679925918579,5.160799026489258,-2.153376817703247
1716551997845896700,12.238896728515625,0.779272735118866,5.764523506164551,-1.5587844848632812
