time,seconds_elapsed,z,y,x
1716758395418948600,0.355948486328125,0.03521394729614258,0.23261356353759766,0.21308787167072296
1716758395429019400,0.366019287109375,-0.2047262191772461,0.28314685821533203,0.14131879806518555
1716758395439090200,0.376090087890625,-0.23207712173461914,0.26114702224731445,-0.030841901898384094
1716758395449161000,0.386160888671875,-0.03996419906616211,0.29458045959472656,-0.07034887373447418
1716758395459231700,0.396231689453125,0.14592266082763672,0.17568492889404297,-0.13288693130016327
1716758395469302500,0.406302490234375,0.3128776550292969,0.08187007904052734,-0.24908187985420227
1716758395479373300,0.416373291015625,0.4988679885864258,0.11696147918701172,-0.03968121111392975
1716758395489444400,0.4264443359375,0.6023406982421875,0.09345340728759766,0.09777311980724335
1716758395499545600,0.436545654296875,0.6212048530578613,-0.09768295288085938,0.038767218589782715
1716758395509616400,0.446616455078125,0.8313460350036621,-0.6105384826660156,0.02187633514404297
1716758395519717600,0.456717529296875,-0.08226442337036133,-0.9829516410827637,-0.10834600031375885
1716758395529788400,0.466788330078125,0.12231731414794922,-0.41474294662475586,0.24462038278579712
1716758395539890000,0.476889892578125,0.02898263931274414,0.0305938720703125,0.22613942623138428
1716758395549991200,0.4869912109375,-0.2605576515197754,-0.023774147033691406,0.14130327105522156
1716758395560092400,0.497092529296875,-0.00421905517578125,-0.06396722793579102,0.22431877255439758
1716758395570193700,0.507193603515625,0.3516068458557129,-0.09660577774047852,0.27824148535728455
1716758395580295200,0.517295166015625,0.2659153938293457,-0.23089027404785156,0.28492096066474915
1716758395590396400,0.527396484375,0.1306614875793457,-0.18651723861694336,0.3818025588989258
1716758395600497700,0.53749755859375,0.12207746505737305,-0.0003867149353027344,0.45273804664611816
1716758395610599000,0.547598876953125,0.059955596923828125,0.05919170379638672,0.46516934037208557
1716758395620700400,0.557700439453125,0.04670858383178711,-0.31374168395996094,0.29621708393096924
1716758395630801700,0.5678017578125,0.2653179168701172,-0.6694293022155762,0.22883424162864685
1716758395640903000,0.57790283203125,0.47864723205566406,-0.7488498687744141,0.24629619717597961
1716758395651004400,0.58800439453125,0.7989249229431152,-0.5447483062744141,0.18510112166404724
1716758395661136100,0.59813623046875,0.8565144538879395,-0.5132174491882324,-0.02882900834083557
1716758395671237400,0.6082373046875,1.4905571937561035,-0.6822237968444824,0.22513878345489502
1716758395681339000,0.6183388671875,1.9951810836791992,0.2880282402038574,0.8312730193138123
1716758395691470600,0.628470703125,0.18411970138549805,0.874321460723877,0.02066737413406372
1716758395701571800,0.63857177734375,-1.0496110916137695,0.9573564529418945,-1.3147897720336914
1716758395711703800,0.648703857421875,-1.0766777992248535,1.3892583847045898,-1.1664458513259888
1716758395721805000,0.65880517578125,-0.824122428894043,1.3132023811340332,-0.6730359196662903
1716758395731937000,0.66893701171875,-0.6249384880065918,0.7931127548217773,-0.33384013175964355
1716758395742038300,0.679038330078125,-0.3864922523498535,0.14000892639160156,-0.1447545289993286
1716758395752170000,0.689169921875,-0.10129928588867188,-0.27330589294433594,0.17615973949432373
1716758395762271500,0.699271484375,0.09628486633300781,-0.3684043884277344,0.36056649684906006
1716758395772403200,0.7094033203125,0.013851642608642578,-0.2082047462463379,0.41687434911727905
1716758395782535200,0.71953515625,0.07892084121704102,-0.09490442276000977,0.3579246401786804
1716758395792636400,0.729636474609375,0.0524134635925293,-0.15501022338867188,0.18239787220954895
1716758395802768100,0.73976806640625,0.1473522186279297,-0.2142481803894043,0.13046884536743164
1716758395812900000,0.749900146484375,0.28131961822509766,-0.3013477325439453,0.17781493067741394
1716758395823001300,0.76000146484375,-0.16384267807006836,-1.306321144104004,-0.17790493369102478
1716758395833133300,0.77013330078125,0.5374112129211426,-0.9812808036804199,0.7125086784362793
1716758395843265000,0.78026513671875,0.7089900970458984,-0.36386728286743164,0.9490677118301392
1716758395853397000,0.79039697265625,0.3325624465942383,0.05233335494995117,0.2415020763874054
1716758395863498200,0.800498291015625,0.39766931533813477,0.587338924407959,-0.15462031960487366
1716758395873630000,0.8106298828125,0.47454357147216797,0.746304988861084,-0.5213311910629272
1716758395883762000,0.820761962890625,0.3737826347351074,0.6760368347167969,-0.8697537779808044
1716758395893893600,0.8308935546875,0.2071528434753418,0.47454071044921875,-0.7966254949569702
1716758395903995100,0.8409951171875,0.020252227783203125,0.2503514289855957,-0.5504583120346069
1716758395914126800,0.851126953125,-0.2298436164855957,0.026047706604003906,-0.30118849873542786
1716758395924258800,0.8612587890625,-0.3480195999145508,-0.1449728012084961,-0.08162534236907959
1716758395934390500,0.871390625,-0.646751880645752,-0.17695379257202148,0.006682753562927246
1716758395944522200,0.881522216796875,-0.8518743515014648,-0.15239191055297852,0.06663960218429565
1716758395954654200,0.891654296875,-0.7657170295715332,-0.1747608184814453,-0.002538919448852539
1716758395964755500,0.90175537109375,0.05573225021362305,-0.2418680191040039,-0.003184109926223755
1716758395974887400,0.911887451171875,-0.03737020492553711,-0.3158888816833496,0.1309070587158203
1716758395985019100,0.92201904296875,-0.24354934692382812,-0.3585686683654785,0.03099694848060608
1716758395995151000,0.932151123046875,0.30379247665405273,-0.29721879959106445,-0.020093172788619995
1716758396005282800,0.94228271484375,0.459073543548584,-0.23078203201293945,-0.3177395164966583
1716758396015414800,0.952414794921875,0.45929574966430664,-0.11890840530395508,-0.45934736728668213
1716758396025546500,0.96254638671875,0.18596982955932617,-0.028143882751464844,-0.341259241104126
1716758396035647700,0.972647705078125,-0.11305046081542969,0.05055522918701172,-0.10549008846282959
1716758396045779700,0.98277978515625,-0.19642353057861328,0.10306358337402344,0.08994042873382568
1716758396055911400,0.992911376953125,-0.1826615333557129,0.09401559829711914,0.22046691179275513
1716758396066043400,1.00304345703125,-0.1702899932861328,0.024535655975341797,0.25818371772766113
1716758396076175000,1.013175048828125,-0.2845339775085449,-0.07143259048461914,0.250093936920166
1716758396086307000,1.02330712890625,-0.06659841537475586,-0.13509416580200195,0.18394172191619873
1716758396096438800,1.033438720703125,0.30377912521362305,-0.12625598907470703,0.09884953498840332
1716758396106570800,1.04357080078125,0.3881058692932129,-0.15066051483154297,0.10186535120010376
1716758396116702500,1.053702392578125,0.32137155532836914,-0.27307891845703125,-0.07158645987510681
1716758396126834400,1.06383447265625,0.13032102584838867,-0.24724388122558594,0.2419348955154419
1716758396136966100,1.073966064453125,0.019303321838378906,-0.19298982620239258,-0.2249099612236023
1716758396147098000,1.08409814453125,0.031131744384765625,0.09948348999023438,-0.5959312915802002
1716758396157229800,1.094229736328125,0.33030223846435547,0.30957508087158203,-0.5699285268783569
1716758396167361800,1.10436181640625,-0.0628809928894043,0.3822765350341797,-0.5097987651824951
1716758396177463000,1.114463134765625,-0.24594593048095703,0.24404621124267578,-0.41563788056373596
1716758396187594800,1.1245947265625,-0.17706966400146484,0.11819171905517578,-0.293867290019989
1716758396197726700,1.134726806640625,-0.027156352996826172,0.07538032531738281,-0.04726147651672363
1716758396207858400,1.1448583984375,0.12279319763183594,0.00044918060302734375,0.10141313076019287
1716758396217990400,1.154990478515625,0.5809192657470703,-0.042849063873291016,0.11120668053627014
1716758396228122000,1.1651220703125,0.9422702789306641,-0.1388106346130371,0.007882446050643921
1716758396238254000,1.175254150390625,0.9592709541320801,-0.5093951225280762,-0.08557474613189697
1716758396248385800,1.1853857421875,0.20416641235351562,-0.5684270858764648,0.1492384374141693
1716758396258517800,1.195517822265625,-0.4770016670227051,-0.07184362411499023,-0.07198920845985413
1716758396268649500,1.2056494140625,-0.6181282997131348,0.10524463653564453,-0.3866564631462097
1716758396278781400,1.215781494140625,0.07263851165771484,-0.04022932052612305,-0.1722296178340912
1716758396288913200,1.2259130859375,1.0381731986999512,0.06450510025024414,0.2164173424243927
1716758396299045000,1.236045166015625,0.9870901107788086,0.2950401306152344,0.25877293944358826
1716758396309176800,1.2461767578125,0.061696529388427734,0.2933945655822754,0.10399079322814941
1716758396319308800,1.256308837890625,-0.4564032554626465,0.18810176849365234,0.009246796369552612
1716758396329440500,1.2664404296875,-0.5263681411743164,0.07984113693237305,-0.06610018014907837
1716758396339572500,1.276572509765625,-0.23457670211791992,0.0956583023071289,-0.21308377385139465
1716758396349704200,1.2867041015625,0.020343780517578125,0.01786327362060547,-0.08370429277420044
1716758396359836200,1.296836181640625,0.04019021987915039,-0.1436758041381836,0.18259656429290771
1716758396369967900,1.3069677734375,0.11199092864990234,-0.17747879028320312,0.3488386869430542
1716758396380099800,1.317099853515625,0.3969993591308594,-0.14268064498901367,0.43538981676101685
1716758396390231600,1.3272314453125,0.5594563484191895,0.06988239288330078,0.5801329016685486
1716758396400363500,1.337363525390625,-0.0437932014465332,0.025837421417236328,0.4890559911727905
1716758396410495200,1.3474951171875,-0.24387407302856445,-0.05488252639770508,0.06635504961013794
1716758396420627200,1.357627197265625,-0.13462162017822266,0.12265920639038086,-0.130010724067688
1716758396430759000,1.367759033203125,0.08835458755493164,0.25543737411499023,-0.037715256214141846
1716758396440891000,1.377890869140625,0.08546781539916992,0.3239765167236328,-0.05084747076034546
1716758396451022600,1.388022705078125,-0.07742500305175781,0.5210394859313965,-0.45049774646759033
1716758396461154600,1.398154541015625,-0.2805490493774414,0.6324958801269531,-0.6254297494888306
1716758396471286300,1.408286376953125,0.19304943084716797,-0.015377521514892578,-0.697583794593811
1716758396481418200,1.418418212890625,0.6635580062866211,-0.9792537689208984,-0.3764744997024536
1716758396491550000,1.428550048828125,1.1336278915405273,-1.1716971397399902,0.13215035200119019
1716758396501681700,1.438681640625,0.720186710357666,-1.0413260459899902,0.4013407230377197
1716758396511813600,1.448813720703125,0.03369283676147461,-0.6288185119628906,0.7536011934280396
1716758396521945300,1.4589453125,-0.2800478935241699,-0.3544802665710449,1.058168649673462
1716758396532077300,1.469077392578125,-0.4370598793029785,-0.13019752502441406,1.1708797216415405
1716758396542209000,1.479208984375,-0.6418728828430176,-0.013437747955322266,0.8928901553153992
1716758396552341000,1.489341064453125,-1.0223350524902344,0.03760862350463867,0.33095207810401917
1716758396562472700,1.49947265625,-1.105769157409668,0.26279354095458984,0.28887560963630676
1716758396572604700,1.509604736328125,-0.881525993347168,0.4768829345703125,0.38784468173980713
1716758396582736400,1.519736328125,-0.9723587036132812,0.36417484283447266,0.45331671833992004
1716758396592868400,1.529868408203125,-1.3465471267700195,0.18781280517578125,0.2324131429195404
1716758396603000000,1.54,-1.5158982276916504,0.3818511962890625,-0.06460505723953247
1716758396613132000,1.550132080078125,-1.812591552734375,0.6803474426269531,-0.06763142347335815
1716758396623263700,1.560263671875,-2.2595696449279785,0.9758496284484863,0.33443886041641235
1716758396633395700,1.570395751953125,-2.4021501541137695,0.7857065200805664,0.5233893394470215
1716758396643527400,1.58052734375,-2.506016254425049,0.35095977783203125,-0.021550416946411133
1716758396653659400,1.590659423828125,-2.5098366737365723,0.4681715965270996,0.5999793410301208
1716758396663791000,1.600791015625,-2.3849220275878906,0.6614193916320801,1.3576200008392334
1716758396673923000,1.610923095703125,-2.647139072418213,0.7440862655639648,1.2687081098556519
1716758396684054800,1.6210546875,-0.9955706596374512,1.5194816589355469,2.1254758834838867
1716758396694186800,1.631186767578125,-1.6545734405517578,2.1515207290649414,5.018165588378906
1716758396704318500,1.641318359375,-2.453214645385742,1.9846487045288086,6.269754886627197
1716758396714450400,1.651450439453125,-2.6794090270996094,0.9893522262573242,6.541977882385254
1716758396724582100,1.66158203125,-1.8838872909545898,0.6816020011901855,5.7382917404174805
1716758396734714000,1.671714111328125,-1.3599720001220703,0.7556443214416504,4.2453508377075195
1716758396744845800,1.681845703125,-1.59442138671875,1.2422590255737305,4.150210380554199
1716758396754977800,1.691977783203125,-2.156308650970459,1.7629790306091309,5.615972518920898
1716758396765109500,1.702109619140625,-2.9100708961486816,2.0250039100646973,7.447515487670898
1716758396775241500,1.712241455078125,-4.170008659362793,1.8948979377746582,8.8089599609375
1716758396785373200,1.722373291015625,-5.203871726989746,1.494779109954834,9.359800338745117
1716758396795505200,1.732505126953125,-5.342686653137207,0.8385310173034668,9.19947338104248
1716758396805636900,1.742636962890625,-4.846218585968018,-0.0029144287109375,8.511717796325684
1716758396815768600,1.7527685546875,-4.6744303703308105,-0.8972549438476562,7.380153656005859
1716758396825900500,1.762900634765625,-5.502416610717773,-1.7362546920776367,6.357189178466797
1716758396836032300,1.7730322265625,-6.54058313369751,-2.1920976638793945,5.650233268737793
1716758396846164200,1.783164306640625,-6.741356372833252,-2.410663604736328,5.45152473449707
1716758396856296000,1.7932958984375,-5.616885662078857,-2.8900585174560547,5.619666576385498
1716758396866428000,1.803427978515625,-3.3904953002929688,-3.4690122604370117,5.551541328430176
1716758396876559600,1.8135595703125,-1.0673413276672363,-4.025195598602295,5.365507125854492
1716758396886691600,1.823691650390625,0.009533882141113281,-4.472604274749756,5.1165995597839355
1716758396896823300,1.8338232421875,0.01943349838256836,-4.728150367736816,4.431070327758789
1716758396906955300,1.843955322265625,-1.278820514678955,-5.008724689483643,3.8358678817749023
1716758396917087000,1.8540869140625,-3.110907554626465,-4.990995407104492,3.060666561126709
1716758396927219000,1.864218994140625,-3.630309581756592,-5.143448352813721,2.6657767295837402
1716758396937350700,1.8743505859375,-3.1435604095458984,-5.9772725105285645,2.269132614135742
1716758396947482600,1.884482666015625,-2.003509998321533,-6.669206619262695,1.1725637912750244
1716758396957614300,1.8946142578125,0.8454489707946777,-6.5708537101745605,0.5451183319091797
1716758396967746300,1.904746337890625,4.609910488128662,-5.205697059631348,2.4800729751586914
1716758396977878000,1.9148779296875,8.310152053833008,-3.0916061401367188,6.536968231201172
1716758396988010000,1.925010009765625,12.374281883239746,-1.173600196838379,10.267692565917969
1716758396998141700,1.9351416015625,15.847504615783691,-0.06563520431518555,12.778512954711914
1716758397008273700,1.945273681640625,17.98374366760254,0.09302377700805664,12.662466049194336
1716758397018405400,1.9554052734375,17.719837188720703,-0.4643383026123047,10.574474334716797
1716758397028537300,1.965537353515625,15.876956939697266,-0.5913548469543457,7.251354217529297
1716758397038669000,1.9756689453125,12.825067520141602,-0.009618282318115234,3.9646220207214355
1716758397048801000,1.985801025390625,9.379712104797363,1.21480131149292,2.534529685974121
1716758397058932700,1.9959326171875,7.47972297668457,2.8728880882263184,3.1254515647888184
1716758397069064700,2.006064697265625,7.327244758605957,4.388575077056885,4.837865829467773
1716758397079196400,2.016196533203125,8.592916488647461,5.385915756225586,6.697846412658691
1716758397089328400,2.026328369140625,11.56409740447998,5.732698917388916,7.562040328979492
1716758397099460000,2.036460205078125,14.408576011657715,5.8409953117370605,7.413318157196045
1716758397109592000,2.046592041015625,15.808028221130371,5.920712947845459,6.70254373550415
1716758397119723800,2.056723876953125,16.962770462036133,5.797118186950684,5.860457420349121
1716758397129855500,2.06685546875,19.171207427978516,5.867324352264404,6.006410121917725
1716758397139987500,2.076987548828125,23.388580322265625,6.043161869049072,7.3474531173706055
1716758397150119200,2.087119140625,28.673892974853516,5.822669506072998,9.7564058303833
1716758397160251100,2.097251220703125,32.27238082885742,4.462211608886719,12.158578872680664
1716758397170382800,2.1073828125,32.339927673339844,2.540243148803711,13.732271194458008
1716758397180514800,2.117514892578125,29.251750946044922,1.3755521774291992,14.598423957824707
1716758397190646500,2.127646484375,25.883464813232422,0.8014745712280273,15.126813888549805
1716758397200778500,2.137778564453125,24.929643630981445,0.18201255798339844,15.449202537536621
1716758397210910200,2.14791015625,25.658048629760742,-0.7888784408569336,15.527183532714844
1716758397221042200,2.158042236328125,27.189041137695312,-2.016033172607422,16.126760482788086
1716758397231174000,2.168173828125,27.04273223876953,-3.665445327758789,16.72367286682129
1716758397241305900,2.178305908203125,24.313739776611328,-5.931510925292969,17.34262466430664
1716758397251437600,2.1884375,19.904571533203125,-8.343926429748535,16.952129364013672
1716758397261569500,2.198569580078125,14.93821907043457,-10.465551376342773,14.742453575134277
1716758397271701200,2.208701171875,11.181476593017578,-11.944009780883789,11.56370735168457
1716758397281833200,2.218833251953125,8.925028800964355,-12.751938819885254,8.328505516052246
1716758397291965000,2.22896484375,7.901939868927002,-12.954883575439453,4.0118842124938965
1716758397302097000,2.239096923828125,7.866586208343506,-12.806529998779297,3.93558406829834
1716758397312228600,2.249228515625,7.788260459899902,-12.45012092590332,4.451772689819336
1716758397322360600,2.259360595703125,7.554638862609863,-12.131998062133789,5.926791191101074
1716758397332492300,2.2694921875,6.621373176574707,-12.36257266998291,8.236379623413086
1716758397342624300,2.279624267578125,5.079226493835449,-13.12946605682373,9.64218521118164
1716758397352756000,2.289755859375,3.872523307800293,-14.784117698669434,9.340597152709961
1716758397362888000,2.299887939453125,2.6081833839416504,-16.468997955322266,4.669589042663574
1716758397373019600,2.31001953125,1.4611718654632568,-17.25408935546875,2.0958614349365234
1716758397383151600,2.320151611328125,1.0572211742401123,-17.825654983520508,0.05289649963378906
1716758397393283300,2.330283447265625,1.6322996616363525,-18.515573501586914,-1.5718889236450195
1716758397403415300,2.340415283203125,1.0087499618530273,-20.103689193725586,-3.777824878692627
1716758397413547000,2.350547119140625,0.5857635736465454,-21.42841148376465,-5.597082614898682
1716758397423679000,2.360678955078125,1.5536766052246094,-23.16755485534668,-7.9283952713012695
1716758397433810700,2.370810791015625,3.8749470710754395,-23.446229934692383,-11.089624404907227
1716758397443942400,2.3809423828125,6.568510055541992,-22.833391189575195,-13.077993392944336
1716758397454074400,2.391074462890625,6.587594985961914,-22.237869262695312,-13.750593185424805
1716758397464206000,2.4012060546875,3.2066164016723633,-22.1613712310791,-13.76445198059082
1716758397474338000,2.411338134765625,-0.5965882539749146,-21.927989959716797,-13.117473602294922
1716758397484469800,2.4214697265625,-1.9454911947250366,-21.438444137573242,-11.10776138305664
1716758397494601700,2.431601806640625,-1.9627488851547241,-20.531049728393555,-7.762555122375488
1716758397504733400,2.4417333984375,-2.0774407386779785,-19.457107543945312,-3.664188861846924
1716758397514865400,2.451865478515625,-3.1258420944213867,-18.349685668945312,0.1405658721923828
1716758397524997000,2.4619970703125,-5.54840087890625,-17.325477600097656,2.919893741607666
1716758397535129000,2.472129150390625,-8.145519256591797,-17.133987426757812,4.139878749847412
1716758397545260800,2.4822607421875,-10.153816223144531,-17.470516204833984,4.29939603805542
1716758397555392800,2.492392822265625,-10.950333595275879,-17.156173706054688,4.154147148132324
1716758397565524500,2.5025244140625,-11.511697769165039,-16.25597381591797,4.7062554359436035
1716758397575656400,2.512656494140625,-11.710036277770996,-15.263927459716797,5.4744110107421875
1716758397585788200,2.5227880859375,-10.873651504516602,-14.648950576782227,5.75765323638916
1716758397595920100,2.532920166015625,-9.405982971191406,-14.499820709228516,5.288999080657959
1716758397606051800,2.5430517578125,-7.415825366973877,-14.631454467773438,4.871346950531006
1716758397616183800,2.553183837890625,-5.040774345397949,-14.469013214111328,5.010777473449707
1716758397626315500,2.5633154296875,-3.4629366397857666,-14.603564262390137,4.938760280609131
1716758397636447500,2.573447509765625,-2.0200352668762207,-14.534272193908691,4.676652431488037
1716758397646579200,2.5835791015625,-0.8626203536987305,-14.134093284606934,4.429169178009033
1716758397656711200,2.593711181640625,-0.04873204231262207,-13.36498737335205,4.180582046508789
1716758397666843000,2.6038427734375,1.1684815883636475,-12.208380699157715,4.0754780769348145
1716758397676974800,2.613974853515625,2.347952127456665,-11.548078536987305,4.139791965484619
1716758397687106600,2.6241064453125,3.6385700702667236,-10.927888870239258,3.6481399536132812
1716758397697238500,2.634238525390625,5.080591678619385,-10.35014533996582,2.869351387023926
1716758397707370200,2.644370361328125,7.049293518066406,-9.352928161621094,1.6555895805358887
1716758397717502200,2.654502197265625,8.047253608703613,-8.371767044067383,0.39855337142944336
1716758397727634000,2.664634033203125,8.02426528930664,-6.557158470153809,0.6264190673828125
1716758397737766000,2.674765869140625,6.653778076171875,-4.304615497589111,2.086193084716797
1716758397747897600,2.684897705078125,3.9868884086608887,-2.2098727226257324,3.800039291381836
1716758397758029600,2.695029541015625,2.4895455837249756,-0.5494399070739746,3.1918628215789795
1716758397768161300,2.705161376953125,1.5779253244400024,0.13567256927490234,-0.20170855522155762
1716758397778293000,2.71529296875,1.5576823949813843,0.2074127197265625,-5.041845798492432
1716758397788425000,2.725425048828125,2.336369514465332,0.375063419342041,-7.879087448120117
1716758397798556700,2.735556640625,3.824887275695801,0.30148983001708984,-7.665696144104004
1716758397808688600,2.745688720703125,4.539091110229492,-0.16739463806152344,-5.414371490478516
1716758397818820400,2.7558203125,4.452497482299805,-0.07169914245605469,-1.2995905876159668
1716758397828952300,2.765952392578125,3.9067342281341553,-0.5819826126098633,2.507371187210083
1716758397839084000,2.776083984375,3.903208017349243,-1.6041278839111328,4.355513572692871
1716758397849216000,2.786216064453125,4.284583568572998,-2.8263778686523438,4.1623077392578125
1716758397859347700,2.79634765625,4.452731132507324,-3.465510368347168,3.3330321311950684
1716758397869479700,2.806479736328125,3.3646838665008545,-3.30519962310791,2.94517183303833
1716758397879611400,2.816611328125,0.9850457906723022,-3.60720157623291,3.169656276702881
1716758397889743400,2.826743408203125,-0.3232625722885132,-4.224732398986816,5.503786087036133
1716758397899875000,2.836875,-1.3122680187225342,-5.859243392944336,6.712519645690918
1716758397910007000,2.847007080078125,-1.8138567209243774,-8.406926155090332,6.326704025268555
1716758397920138800,2.857138671875,-1.8576436042785645,-10.747047424316406,4.644191741943359
1716758397930270700,2.867270751953125,-1.828762173652649,-12.367342948913574,3.308730363845825
1716758397940402400,2.87740234375,-1.8766082525253296,-13.697129249572754,2.9059858322143555
1716758397950534400,2.887534423828125,0.08938708901405334,-15.136354446411133,2.9012722969055176
1716758397960666000,2.897666015625,3.563575506210327,-16.356273651123047,3.343254804611206
1716758397970798000,2.907798095703125,7.327126979827881,-17.151948928833008,4.510066986083984
1716758397980929800,2.9179296875,10.06224536895752,-17.182947158813477,5.943410873413086
1716758397991061800,2.928061767578125,10.844109535217285,-16.793367385864258,7.118748188018799
1716758398001193500,2.938193359375,9.23332405090332,-16.544158935546875,7.678696155548096
1716758398011325400,2.948325439453125,7.120657444000244,-16.213653564453125,7.1431884765625
1716758398021457200,2.95845703125,5.953038692474365,-15.888603210449219,5.928501605987549
1716758398031589000,2.968589111328125,5.7308807373046875,-15.240772247314453,5.401562213897705
1716758398041720800,2.978720947265625,6.598624229431152,-14.406146049499512,6.073696613311768
1716758398051852800,2.988852783203125,8.110540390014648,-13.506467819213867,6.955514907836914
1716758398061984500,2.998984619140625,9.912352561950684,-12.625096321105957,7.711599349975586
1716758398072116500,3.009116455078125,10.752869606018066,-11.550100326538086,7.679472923278809
1716758398082248200,3.019248291015625,10.129517555236816,-10.181994438171387,7.645802974700928
1716758398092380000,3.0293798828125,8.758411407470703,-8.754865646362305,7.452747821807861
1716758398102511900,3.039511962890625,6.846625328063965,-6.956642150878906,7.549353122711182
1716758398112643600,3.0496435546875,4.601240158081055,-5.406172275543213,8.170082092285156
1716758398122775600,3.059775634765625,2.7783453464508057,-4.440618991851807,8.574069023132324
1716758398132907300,3.0699072265625,1.6909594535827637,-3.3939766883850098,8.574735641479492
1716758398143039200,3.080039306640625,2.7745323181152344,-1.8205878734588623,9.89537239074707
1716758398153171000,3.0901708984375,4.844656944274902,0.04222589731216431,11.74560260772705
1716758398163303000,3.100302978515625,6.721529960632324,2.5020201206207275,13.354704856872559
1716758398173434600,3.1104345703125,8.024986267089844,4.824304580688477,14.842379570007324
1716758398183566600,3.120566650390625,8.774733543395996,6.437599182128906,15.76311206817627
1716758398193698300,3.1306982421875,8.722110748291016,7.529951095581055,15.834813117980957
1716758398203830300,3.140830322265625,8.219442367553711,8.164321899414062,15.659101486206055
1716758398213962000,3.1509619140625,7.504298210144043,8.421594619750977,15.028458595275879
1716758398224094000,3.161093994140625,7.552362442016602,9.730175018310547,14.441383361816406
1716758398234225700,3.1712255859375,7.079379558563232,11.514892578125,15.891525268554688
1716758398244357600,3.181357666015625,7.453657150268555,13.051933288574219,19.421977996826172
1716758398254489300,3.1914892578125,8.725421905517578,13.715557098388672,24.25847053527832
1716758398264621300,3.201621337890625,13.693147659301758,12.925735473632812,28.836841583251953
1716758398274753000,3.2117529296875,24.411746978759766,12.614498138427734,31.12274742126465
1716758398284885000,3.221885009765625,33.6317138671875,14.880611419677734,32.189388275146484
1716758398295016700,3.2320166015625,33.034881591796875,15.477005004882812,32.499298095703125
1716758398305148700,3.242148681640625,32.494056701660156,13.650001525878906,32.732460021972656
1716758398315280400,3.2522802734375,32.044342041015625,10.91395378112793,32.85761260986328
1716758398325412400,3.262412353515625,21.058565139770508,11.805235862731934,29.587919235229492
1716758398335544000,3.2725439453125,14.955846786499023,14.00196647644043,29.221036911010742
1716758398345676000,3.282676025390625,15.593705177307129,15.284446716308594,31.087745666503906
1716758398355807700,3.292807861328125,18.91846466064453,13.702170372009277,32.83589172363281
1716758398365939700,3.302939697265625,19.524845123291016,10.18196964263916,31.582582473754883
1716758398376071400,3.313071533203125,20.13574981689453,6.362010955810547,27.580007553100586
1716758398386203400,3.323203369140625,22.524805068969727,2.75561785697937,23.00662612915039
1716758398396335000,3.333335205078125,25.48604965209961,-0.4945249557495117,18.795841217041016
1716758398406466800,3.343466796875,27.106407165527344,-2.2168076038360596,15.669975280761719
1716758398416598800,3.353598876953125,26.117027282714844,-3.4206759929656982,15.30792236328125
1716758398426730500,3.36373046875,24.006229400634766,-4.882125377655029,16.532913208007812
1716758398436862500,3.373862548828125,23.142210006713867,-7.45411491394043,16.66184425354004
1716758398446994200,3.383994140625,22.915374755859375,-10.03123664855957,14.466590881347656
1716758398457126100,3.394126220703125,22.858671188354492,-12.368290901184082,11.391677856445312
1716758398467257900,3.4042578125,20.97121810913086,-14.181623458862305,8.591442108154297
1716758398477389800,3.414389892578125,18.21611785888672,-15.644148826599121,6.242509365081787
1716758398487521500,3.424521484375,14.950014114379883,-16.944726943969727,4.27899694442749
1716758398497653500,3.434653564453125,12.081334114074707,-17.976898193359375,2.4745864868164062
1716758398507785200,3.44478515625,10.202089309692383,-18.593891143798828,0.9048380851745605
1716758398517917200,3.454917236328125,8.582271575927734,-18.898056030273438,0.1925950050354004
1716758398528049000,3.465048828125,7.541745185852051,-19.40433120727539,-1.6411969661712646
1716758398538180900,3.475180908203125,7.12005090713501,-19.654308319091797,-2.759916305541992
1716758398548312600,3.4853125,6.386132717132568,-19.922435760498047,-1.8148715496063232
1716758398558444500,3.495444580078125,6.197539806365967,-20.758995056152344,-0.6307082176208496
1716758398568576300,3.505576171875,6.627954483032227,-22.223508834838867,0.26496076583862305
1716758398578708200,3.515708251953125,7.527575969696045,-24.032419204711914,0.6680700778961182
1716758398588840000,3.52583984375,9.44599437713623,-24.234472274780273,1.022969365119934
1716758398598972000,3.535971923828125,11.27779483795166,-22.723909378051758,1.4009404182434082
1716758398609103600,3.546103515625,11.82070541381836,-19.825862884521484,2.923645496368408
1716758398619235600,3.556235595703125,11.455236434936523,-17.135173797607422,6.523077011108398
1716758398629367300,3.5663671875,11.161863327026367,-15.938547134399414,10.914798736572266
1716758398639499300,3.576499267578125,11.984122276306152,-16.272279739379883,13.769357681274414
1716758398649631000,3.586630859375,13.135157585144043,-18.021408081054688,14.351312637329102
1716758398659763000,3.596762939453125,13.352473258972168,-20.2806396484375,12.267078399658203
1716758398669894700,3.606894775390625,13.266119003295898,-20.947824478149414,8.868146896362305
1716758398680026600,3.617026611328125,12.63786792755127,-19.71221351623535,7.07535982131958
1716758398690158300,3.627158447265625,11.327356338500977,-17.304359436035156,7.8070197105407715
1716758398700290300,3.637290283203125,8.527185440063477,-15.272050857543945,10.365883827209473
1716758398710422000,3.647422119140625,6.4157304763793945,-14.443963050842285,13.264141082763672
1716758398720554000,3.657553955078125,5.3679890632629395,-14.8795747756958,14.966241836547852
1716758398730685700,3.667685791015625,5.923323631286621,-15.661819458007812,14.989668846130371
1716758398740817400,3.6778173828125,8.475468635559082,-16.709266662597656,13.665722846984863
1716758398750949400,3.687949462890625,11.336053848266602,-17.62273597717285,11.447161674499512
1716758398761081000,3.6980810546875,11.760007858276367,-17.6906681060791,9.627408981323242
1716758398771213000,3.708213134765625,8.198932647705078,-16.996646881103516,9.246854782104492
1716758398781344800,3.7183447265625,3.577500343322754,-16.13401985168457,9.552638053894043
1716758398791476700,3.728476806640625,0.49706268310546875,-14.476177215576172,8.906951904296875
1716758398801608400,3.7386083984375,-0.8353385925292969,-13.531637191772461,5.213620185852051
1716758398811740400,3.748740478515625,-1.1851954460144043,-13.72386646270752,1.9811139106750488
1716758398821872000,3.7588720703125,-1.4323701858520508,-13.944652557373047,-2.0676350593566895
1716758398832004000,3.769004150390625,-4.454416275024414,-15.231401443481445,-7.467494010925293
1716758398842135800,3.7791357421875,-10.580879211425781,-16.90896224975586,-13.85458755493164
1716758398852267800,3.789267822265625,-15.320450782775879,-18.22125244140625,-19.582447052001953
1716758398862399500,3.7993994140625,-17.238542556762695,-19.18914794921875,-24.914793014526367
1716758398872531500,3.809531494140625,-17.481218338012695,-20.21450424194336,-29.38779067993164
1716758398882663200,3.8196630859375,-17.348310470581055,-19.86042594909668,-31.730426788330078
1716758398892795100,3.829795166015625,-16.694482803344727,-18.290128707885742,-30.903749465942383
1716758398902926800,3.8399267578125,-15.870864868164062,-15.87624740600586,-26.882898330688477
1716758398913058800,3.850058837890625,-14.6866455078125,-13.207013130187988,-21.566295623779297
1716758398923190500,3.8601904296875,-12.822843551635742,-11.694171905517578,-17.522653579711914
1716758398933322500,3.870322509765625,-10.70806884765625,-11.414630889892578,-15.526542663574219
1716758398943454200,3.8804541015625,-8.923786163330078,-12.24703311920166,-14.996160507202148
1716758398953586200,3.890586181640625,-7.113797187805176,-13.2719087600708,-14.429414749145508
1716758398963718000,3.9007177734375,-4.2596588134765625,-14.150423049926758,-12.612691879272461
1716758398973849900,3.910849853515625,-0.9032082557678223,-14.348503112792969,-9.754920959472656
1716758398983981600,3.920981689453125,1.3745813369750977,-14.450823783874512,-6.934131622314453
1716758398994113500,3.931113525390625,2.993116855621338,-15.01883316040039,-5.22279691696167
1716758399004245200,3.941245361328125,4.388945579528809,-15.79037857055664,-4.221945762634277
1716758399014377200,3.951377197265625,5.94465970993042,-16.989791870117188,-3.304830551147461
1716758399024509000,3.961509033203125,8.208307266235352,-18.14857292175293,-1.9061980247497559
1716758399034641000,3.971640869140625,9.856256484985352,-18.888408660888672,-0.11750268936157227
1716758399044772600,3.981772705078125,10.760286331176758,-19.509977340698242,1.340719223022461
1716758399054904300,3.991904296875,11.509513854980469,-19.89862632751465,2.6431643962860107
1716758399065036300,4.002036376953125,12.485008239746094,-19.961204528808594,4.412472724914551
1716758399075168000,4.01216796875,12.704280853271484,-20.401527404785156,3.8738768100738525
1716758399085300000,4.022300048828125,13.02849006652832,-21.56383514404297,5.322427749633789
1716758399095431700,4.032431640625,14.200820922851562,-22.34249496459961,6.481365203857422
1716758399105563600,4.042563720703125,15.194947242736816,-22.60051155090332,8.229360580444336
1716758399115695400,4.0526953125,15.8331298828125,-22.460256576538086,10.20837116241455
1716758399125827300,4.062827392578125,16.668231964111328,-21.92911720275879,11.817885398864746
1716758399135959000,4.072958984375,18.432992935180664,-20.961151123046875,13.428383827209473
1716758399146091000,4.083091064453125,20.43419075012207,-20.502639770507812,14.513069152832031
1716758399156222700,4.09322265625,21.04459571838379,-20.078372955322266,14.115654945373535
1716758399166354700,4.103354736328125,20.500680923461914,-17.25069808959961,14.636276245117188
1716758399176486400,4.113486328125,18.92251968383789,-14.639493942260742,17.686586380004883
1716758399186618400,4.123618408203125,16.52214813232422,-13.368989944458008,18.40260124206543
1716758399196750000,4.13375,13.916864395141602,-13.019440650939941,16.233659744262695
1716758399206882000,4.143882080078125,12.821768760681152,-12.777185440063477,12.825342178344727
1716758399217013800,4.154013671875,12.17078971862793,-12.14683723449707,9.47700023651123
1716758399227145700,4.164145751953125,11.64721965789795,-11.320775985717773,7.1634416580200195
1716758399237277400,4.17427734375,10.927898406982422,-10.317705154418945,5.810159683227539
1716758399247409400,4.184409423828125,10.447279930114746,-9.154766082763672,5.391167163848877
1716758399257541000,4.194541015625,10.919856071472168,-8.634016990661621,4.981896877288818
1716758399267673000,4.204673095703125,11.89785099029541,-8.428245544433594,3.7297143936157227
1716758399277804800,4.2148046875,12.003068923950195,-7.587386608123779,2.8574724197387695
1716758399287936800,4.224936767578125,12.217519760131836,-6.284048080444336,3.098215103149414
1716758399298068500,4.235068359375,12.627676010131836,-4.901418685913086,4.21486759185791
1716758399308200400,4.245200439453125,12.598180770874023,-3.4266653060913086,5.861084938049316
1716758399318332200,4.255332275390625,11.597822189331055,-2.2476882934570312,7.327031135559082
1716758399328464100,4.265464111328125,10.607498168945312,-2.080859661102295,8.18725299835205
1716758399338595800,4.275595947265625,9.168334007263184,-2.50701904296875,7.656940460205078
1716758399348727800,4.285727783203125,9.369617462158203,-2.331862449645996,5.995739936828613
1716758399358859500,4.295859619140625,11.325616836547852,-0.5085283517837524,5.783347129821777
1716758399368991200,4.3059912109375,14.394546508789062,2.611855983734131,9.019214630126953
1716758399379123200,4.316123291015625,16.026891708374023,6.124963283538818,14.949865341186523
1716758399389255000,4.3262548828125,14.524291038513184,8.26603889465332,22.635068893432617
1716758399399387000,4.336386962890625,10.591705322265625,8.164899826049805,27.77304458618164
1716758399409518600,4.3465185546875,6.875954627990723,7.893408298492432,30.069812774658203
1716758399419650600,4.356650634765625,5.05257511138916,9.115857124328613,31.391223907470703
1716758399429782300,4.3667822265625,5.367814540863037,11.357178688049316,31.48552703857422
1716758399439914200,4.376914306640625,6.940708637237549,12.526021957397461,31.57457733154297
1716758399450046000,4.3870458984375,9.649443626403809,11.98992919921875,31.651676177978516
1716758399460178000,4.397177978515625,10.181440353393555,11.73006534576416,31.735340118408203
1716758399470309600,4.4073095703125,10.535422325134277,13.02005386352539,31.830856323242188
1716758399480441600,4.417441650390625,10.828349113464355,14.271775245666504,31.917560577392578
1716758399490573300,4.4275732421875,14.524930953979492,14.135808944702148,31.960939407348633
1716758399500705300,4.437705322265625,18.476720809936523,13.388062477111816,31.95585060119629
1716758399510837000,4.4478369140625,20.061315536499023,13.307548522949219,31.91179084777832
1716758399520969000,4.457968994140625,17.334972381591797,13.73874568939209,31.847816467285156
1716758399531100700,4.4681005859375,13.287057876586914,13.825374603271484,31.775087356567383
1716758399541232600,4.478232666015625,10.046936988830566,13.166109085083008,31.691043853759766
1716758399551364400,4.4883642578125,8.124649047851562,10.448677062988281,31.586585998535156
1716758399561496300,4.498496337890625,7.388332843780518,7.198446750640869,31.457496643066406
1716758399571628000,4.5086279296875,8.144956588745117,4.876439094543457,30.059118270874023
1716758399581760000,4.518760009765625,9.167377471923828,3.982861042022705,26.013187408447266
1716758399591891700,4.5288916015625,9.067235946655273,2.7577011585235596,24.737979888916016
1716758399602023700,4.539023681640625,9.399171829223633,1.1760890483856201,23.740402221679688
1716758399612155400,4.5491552734375,10.311326026916504,-0.9658756256103516,21.948040008544922
1716758399622287400,4.559287353515625,11.997631072998047,-3.2260265350341797,19.256481170654297
1716758399632419000,4.569419189453125,14.630457878112793,-4.896371841430664,16.19002914428711
1716758399642551000,4.579551025390625,16.189977645874023,-5.473359107971191,13.225438117980957
1716758399652682800,4.589682861328125,16.22342872619629,-6.445708751678467,10.367488861083984
1716758399662814700,4.599814697265625,16.854717254638672,-6.760249614715576,7.950435638427734
1716758399672946400,4.609946533203125,17.76897430419922,-6.870083332061768,6.02512264251709
1716758399683078100,4.620078125,18.3232479095459,-7.142308712005615,4.9720330238342285
1716758399693210000,4.630210205078125,17.048860549926758,-7.641621112823486,4.478477478027344
1716758399703341800,4.640341796875,15.323799133300781,-8.356014251708984,4.280961036682129
1716758399713473800,4.650473876953125,13.656037330627441,-9.218881607055664,3.882469654083252
1716758399723605500,4.66060546875,12.132416725158691,-9.575700759887695,3.8640480041503906
1716758399733737500,4.670737548828125,10.64826774597168,-10.266361236572266,5.079560279846191
1716758399743869200,4.680869140625,10.649222373962402,-11.860350608825684,5.585336208343506
1716758399754001200,4.691001220703125,12.216397285461426,-12.900236129760742,4.759197235107422
1716758399764132900,4.7011328125,12.733663558959961,-13.775925636291504,4.017906188964844
1716758399774264800,4.711264892578125,12.573001861572266,-14.2598237991333,4.592615604400635
1716758399784396500,4.721396484375,11.828234672546387,-14.630224227905273,5.347832679748535
1716758399794528500,4.731528564453125,10.849206924438477,-15.275914192199707,5.729046821594238
1716758399804660200,4.74166015625,10.705282211303711,-16.36794662475586,5.541352272033691
1716758399814792200,4.751792236328125,11.740432739257812,-17.325096130371094,5.321723937988281
1716758399824924000,4.761923828125,13.378210067749023,-18.168983459472656,5.447216510772705
1716758399835055900,4.772055908203125,14.521175384521484,-17.95743179321289,5.615642070770264
1716758399845187600,4.7821875,14.269477844238281,-16.996063232421875,6.197048187255859
1716758399855319600,4.792319580078125,12.689193725585938,-16.558624267578125,7.375903606414795
1716758399865451300,4.802451171875,11.364177703857422,-16.202037811279297,7.9172210693359375
1716758399875583200,4.812583251953125,10.252775192260742,-16.323843002319336,8.087225914001465
1716758399885715000,4.82271484375,10.252896308898926,-16.95482063293457,8.161291122436523
1716758399895847000,4.832846923828125,10.023492813110352,-17.50048828125,7.589285373687744
1716758399905978600,4.842978515625,9.714593887329102,-17.913558959960938,7.538288593292236
1716758399916110600,4.853110595703125,9.521867752075195,-18.532257080078125,8.038533210754395
1716758399926242300,4.8632421875,8.720178604125977,-18.780874252319336,7.934920310974121
1716758399936374300,4.873374267578125,7.943977355957031,-18.506580352783203,7.875966548919678
1716758399946506000,4.883506103515625,7.318785190582275,-17.959503173828125,8.380142211914062
1716758399956638000,4.893637939453125,6.638542175292969,-17.612985610961914,9.241949081420898
1716758399966769700,4.903769775390625,5.8105549812316895,-17.21625328063965,9.809136390686035
1716758399976901600,4.913901611328125,5.554465293884277,-16.20787811279297,9.456998825073242
1716758399987033300,4.924033447265625,5.600202560424805,-15.576711654663086,9.969391822814941
1716758399997165000,4.9341650390625,6.73503303527832,-14.528651237487793,9.359456062316895
1716758400007297000,4.944297119140625,8.312625885009766,-13.560598373413086,3.3318607807159424
1716758400017428700,4.9544287109375,6.986135959625244,-12.761238098144531,-0.7334434986114502
1716758400027560700,4.964560791015625,3.526278495788574,-11.31843376159668,-4.266665458679199
1716758400037692400,4.9746923828125,-2.3839573860168457,-9.9850492477417,-6.579784870147705
1716758400047824400,4.984824462890625,-8.269639015197754,-9.571910858154297,-8.113027572631836
1716758400057956000,4.9949560546875,-10.055011749267578,-10.116847038269043,-9.773073196411133
1716758400068088000,5.005088134765625,-8.809496879577637,-11.362632751464844,-12.876296997070312
1716758400078219800,5.0152197265625,-7.397274017333984,-13.920600891113281,-18.835678100585938
1716758400088351700,5.025351806640625,-8.003057479858398,-16.12335777282715,-25.14381980895996
1716758400098483500,5.0354833984375,-11.799945831298828,-17.10934066772461,-30.00698471069336
1716758400108615400,5.045615478515625,-17.5224609375,-15.555831909179688,-31.23647117614746
1716758400118747100,5.0557470703125,-20.81175422668457,-12.694795608520508,-29.280073165893555
1716758400128879000,5.065879150390625,-21.037567138671875,-11.373619079589844,-27.334854125976562
1716758400139010800,5.0760107421875,-19.142148971557617,-11.282212257385254,-25.34220314025879
1716758400149142800,5.086142822265625,-16.11655616760254,-11.643065452575684,-22.99483871459961
1716758400159274500,5.0962744140625,-13.306808471679688,-12.329352378845215,-20.88711166381836
1716758400169406500,5.106406494140625,-10.944106101989746,-13.040599822998047,-18.06475830078125
1716758400179538200,5.1165380859375,-8.582440376281738,-13.31085205078125,-14.443840980529785
1716758400189670100,5.126670166015625,-5.750893592834473,-13.53129768371582,-10.606220245361328
1716758400199801900,5.1368017578125,-2.380153179168701,-13.810067176818848,-7.144584655761719
1716758400209933800,5.146933837890625,0.5632858276367188,-14.401833534240723,-3.420863628387451
1716758400220065500,5.1570654296875,3.7532973289489746,-14.237607955932617,0.19710350036621094
1716758400230197500,5.167197509765625,6.640002727508545,-14.049861907958984,3.1165719032287598
1716758400240329200,5.1773291015625,9.592453002929688,-14.174558639526367,4.78790283203125
1716758400250461200,5.187461181640625,10.328960418701172,-14.965005874633789,4.54131555557251
1716758400260593000,5.197593017578125,9.291872024536133,-15.723287582397461,3.5567424297332764
1716758400270724900,5.207724853515625,6.748152732849121,-15.74802017211914,2.838510036468506
1716758400280856600,5.217856689453125,4.355499744415283,-15.807140350341797,2.1597208976745605
1716758400290988500,5.227988525390625,2.3772635459899902,-15.47787857055664,1.814823865890503
1716758400301120300,5.238120361328125,2.0644278526306152,-15.423357009887695,2.030416488647461
1716758400311252200,5.248252197265625,3.8090062141418457,-16.17477035522461,2.2683663368225098
1716758400321384000,5.258384033203125,6.356484889984131,-17.335430145263672,3.1548516750335693
1716758400331515600,5.268515625,10.268210411071777,-17.935352325439453,2.69115948677063
1716758400341647600,5.278647705078125,14.07067584991455,-17.652847290039062,4.518357753753662
1716758400351779300,5.288779296875,16.412553787231445,-16.545269012451172,7.433461666107178
1716758400361911300,5.298911376953125,16.02174949645996,-14.948291778564453,10.725249290466309
1716758400372043000,5.30904296875,14.041361808776855,-13.126550674438477,13.116942405700684
1716758400382175000,5.319175048828125,12.213602066040039,-11.759012222290039,14.478789329528809
1716758400392306700,5.329306640625,11.535805702209473,-11.732044219970703,14.81118392944336
1716758400402438700,5.339438720703125,11.434805870056152,-13.182112693786621,12.537126541137695
1716758400412570400,5.3495703125,11.559460639953613,-14.700281143188477,8.805171966552734
1716758400422702300,5.359702392578125,12.497909545898438,-15.824954986572266,5.435376167297363
1716758400432834000,5.369833984375,13.471864700317383,-16.264606475830078,3.3864097595214844
1716758400442966000,5.379966064453125,13.830292701721191,-15.875946044921875,2.7193245887756348
1716758400453097700,5.39009765625,13.80346965789795,-15.251365661621094,3.1381607055664062
1716758400463229700,5.400229736328125,12.897603988647461,-14.333553314208984,4.129687786102295
1716758400473361400,5.410361328125,11.237482070922852,-13.634449005126953,5.087215423583984
1716758400483493400,5.420493408203125,9.554132461547852,-12.824552536010742,5.690362453460693
1716758400493625000,5.430625,8.667548179626465,-12.006734848022461,6.4210896492004395
1716758400503757000,5.440757080078125,8.55126953125,-11.590843200683594,6.833354473114014
1716758400513888800,5.450888671875,9.115018844604492,-11.09394359588623,6.845856189727783
1716758400524020700,5.461020751953125,9.650845527648926,-10.388374328613281,6.889673709869385
1716758400534152400,5.47115234375,10.09850788116455,-9.129867553710938,7.222548484802246
1716758400544284400,5.481284423828125,10.973937034606934,-7.255362510681152,8.167583465576172
1716758400554416000,5.491416015625,11.858634948730469,-4.860769748687744,9.455222129821777
1716758400564548000,5.501548095703125,11.600499153137207,-2.4350836277008057,10.699398040771484
1716758400574679800,5.5116796875,9.622554779052734,-0.3260331153869629,11.581022262573242
1716758400584811800,5.521811767578125,6.9462080001831055,1.2433364391326904,11.602331161499023
1716758400594943500,5.531943603515625,5.129283905029297,2.332439422607422,11.380695343017578
1716758400605075500,5.542075439453125,3.4126315116882324,3.7049052715301514,11.552877426147461
1716758400615207200,5.552207275390625,1.9410364627838135,4.927890300750732,12.046773910522461
1716758400625339100,5.562339111328125,2.0835890769958496,5.915904521942139,12.583558082580566
1716758400635470800,5.572470947265625,4.722100734710693,7.603694915771484,13.87787914276123
1716758400645602600,5.5826025390625,8.398391723632812,10.571694374084473,16.216670989990234
1716758400655734500,5.592734619140625,10.679193496704102,14.027680397033691,20.460552215576172
1716758400665866200,5.6028662109375,10.356786727905273,17.694780349731445,25.6510009765625
1716758400675998200,5.612998291015625,6.680037975311279,20.261995315551758,29.95459747314453
1716758400686130000,5.6231298828125,4.295356750488281,21.793827056884766,31.251487731933594
1716758400696262000,5.633261962890625,7.455163955688477,23.59357261657715,31.272968292236328
1716758400706393600,5.6433935546875,13.001596450805664,25.06379508972168,31.265777587890625
1716758400716525600,5.653525634765625,14.750287055969238,25.80322265625,31.24327278137207
1716758400726657300,5.6636572265625,12.853818893432617,25.922731399536133,31.214683532714844
1716758400736789200,5.673789306640625,10.92013168334961,25.74025535583496,31.178855895996094
1716758400746921000,5.6839208984375,11.79456901550293,25.220558166503906,31.126998901367188
1716758400757053000,5.694052978515625,14.37110710144043,24.33868980407715,31.04995346069336
1716758400767184600,5.7041845703125,16.977190017700195,22.39293670654297,30.946388244628906
1716758400777316600,5.714316650390625,16.931995391845703,19.087238311767578,30.822599411010742
1716758400787448300,5.7244482421875,13.971920013427734,15.257646560668945,30.706390380859375
1716758400797580300,5.734580322265625,12.013002395629883,12.554876327514648,30.62975311279297
1716758400807712000,5.7447119140625,11.190919876098633,10.383787155151367,30.605365753173828
1716758400817844000,5.754843994140625,11.332023620605469,7.887438774108887,30.631736755371094
1716758400827975700,5.7649755859375,12.56808853149414,4.89543342590332,30.7010498046875
1716758400838107600,5.775107666015625,13.978270530700684,1.9976401329040527,28.541473388671875
1716758400848239400,5.7852392578125,14.79716968536377,-0.34942007064819336,23.69203758239746
1716758400858371300,5.795371337890625,14.127376556396484,-2.293327808380127,18.93252182006836
1716758400868503000,5.8055029296875,13.200981140136719,-3.8077635765075684,14.731802940368652
1716758400878635000,5.815635009765625,12.298674583435059,-5.012819290161133,14.89652156829834
1716758400888766700,5.8257666015625,11.543593406677246,-5.784407138824463,8.326277732849121
1716758400898898700,5.835898681640625,11.002315521240234,-6.556854248046875,6.265987873077393
1716758400909030400,5.846030517578125,11.101363182067871,-7.166890621185303,4.828192710876465
1716758400919162400,5.856162353515625,11.082671165466309,-7.803014278411865,4.4117817878723145
1716758400929294000,5.866294189453125,11.492852210998535,-8.926970481872559,4.373270034790039
1716758400939426000,5.876426025390625,12.596348762512207,-11.30710506439209,3.974546432495117
1716758400949557800,5.886557861328125,13.267879486083984,-13.810216903686523,2.7536473274230957
1716758400959689500,5.896689453125,13.502954483032227,-16.049129486083984,1.3949627876281738
1716758400969821400,5.906821533203125,13.929713249206543,-17.832645416259766,0.38793325424194336
1716758400979953200,5.916953125,13.939101219177246,-18.472993850708008,0.3990178108215332
1716758400990085000,5.927085205078125,13.681011199951172,-17.903057098388672,1.051300048828125
1716758401000216800,5.937216796875,13.208702087402344,-17.002155303955078,1.7114372253417969
1716758401010348800,5.947348876953125,12.67645263671875,-16.053861618041992,2.2962164878845215
1716758401020480500,5.95748046875,12.415535926818848,-15.420445442199707,3.506957769393921
1716758401030612500,5.967612548828125,11.861865997314453,-15.221405029296875,5.034600734710693
1716758401040744200,5.977744140625,10.205151557922363,-15.42032241821289,6.487598419189453
1716758401050876200,5.987876220703125,8.360984802246094,-16.690792083740234,7.135073661804199
1716758401061008000,5.9980078125,6.650807857513428,-17.123918533325195,6.132681846618652
1716758401071139800,6.008139892578125,5.764300346374512,-16.72282600402832,4.8267621994018555
1716758401081271600,6.018271484375,5.456517219543457,-16.384662628173828,4.648197650909424
1716758401091403500,6.028403564453125,6.626733779907227,-16.594650268554688,5.026092529296875
1716758401101535200,6.03853515625,6.8081254959106445,-16.572538375854492,5.545382499694824
1716758401111667200,6.048667236328125,5.661975860595703,-16.46141815185547,6.2253217697143555
1716758401121799000,6.058798828125,4.8034515380859375,-15.964073181152344,7.051076412200928
1716758401131931000,6.068930908203125,4.141057014465332,-15.02825927734375,9.184159278869629
1716758401142062600,6.0790625,3.2145283222198486,-15.129958152770996,11.640381813049316
1716758401152194600,6.089194580078125,2.8024518489837646,-16.744529724121094,12.239444732666016
1716758401162326300,6.099326171875,2.4501287937164307,-18.849529266357422,10.657883644104004
1716758401172458200,6.109458251953125,2.4571919441223145,-19.631826400756836,7.528863906860352
1716758401182590000,6.11958984375,3.9372408390045166,-19.076526641845703,4.31142520904541
1716758401192722000,6.129721923828125,5.345780372619629,-18.21859359741211,4.8315629959106445
1716758401202853600,6.139853515625,5.899672985076904,-17.176311492919922,5.119274139404297
1716758401212985600,6.149985595703125,5.934054374694824,-15.581009864807129,6.303677558898926
1716758401223117300,6.160117431640625,5.350276947021484,-14.301168441772461,8.454082489013672
1716758401233249300,6.170249267578125,5.165234565734863,-14.04237174987793,10.032493591308594
1716758401243381000,6.180381103515625,4.788080215454102,-13.684633255004883,5.45812463760376
1716758401253513000,6.190512939453125,3.352297067642212,-13.264423370361328,2.329977512359619
1716758401263644700,6.200644775390625,1.8945112228393555,-13.204233169555664,-0.04286789894104004
1716758401273776600,6.210776611328125,-0.6390702724456787,-12.999467849731445,-2.866295337677002
1716758401283908400,6.220908447265625,-3.400508403778076,-12.598650932312012,-5.149472713470459
1716758401294040000,6.2310400390625,-4.579107284545898,-11.867612838745117,-6.604754447937012
1716758401304172000,6.241172119140625,-4.970069885253906,-11.248866081237793,-8.168025016784668
1716758401314303700,6.2513037109375,-5.789481163024902,-11.841758728027344,-11.18653678894043
1716758401324435700,6.261435791015625,-7.495798110961914,-13.161977767944336,-15.94216537475586
1716758401334567400,6.2715673828125,-9.47605037689209,-14.228652000427246,-21.009023666381836
1716758401344699400,6.281699462890625,-13.212774276733398,-15.194396018981934,-26.44976043701172
1716758401354831000,6.2918310546875,-17.77690315246582,-15.475834846496582,-30.66449546813965
1716758401364963000,6.301963134765625,-19.748689651489258,-14.993919372558594,-31.753616333007812
1716758401375094800,6.3120947265625,-18.68344497680664,-13.527981758117676,-29.461992263793945
1716758401385226800,6.322226806640625,-16.069583892822266,-11.923225402832031,-25.573715209960938
1716758401395358500,6.3323583984375,-13.347471237182617,-11.297725677490234,-22.55158042907715
1716758401405490400,6.342490478515625,-11.454484939575195,-11.683481216430664,-21.14853858947754
1716758401415622100,6.3526220703125,-10.33259391784668,-12.392731666564941,-19.817140579223633
1716758401425754000,6.362754150390625,-9.481766700744629,-12.672080993652344,-17.16631317138672
1716758401435885800,6.3728857421875,-8.255598068237305,-12.52969741821289,-13.010477066040039
1716758401446017800,6.383017822265625,-6.851597309112549,-12.342473030090332,-8.842639923095703
1716758401456149500,6.3931494140625,-4.095216751098633,-11.760381698608398,-4.405580520629883
1716758401466281500,6.403281494140625,-0.19243621826171875,-10.875913619995117,-0.03209733963012695
1716758401476413200,6.4134130859375,4.41536808013916,-10.740945816040039,2.696653366088867
1716758401486545200,6.423545166015625,8.48780632019043,-11.254741668701172,3.8436179161071777
1716758401496676900,6.4336767578125,11.017072677612305,-12.396588325500488,3.424342632293701
1716758401506808800,6.443808837890625,12.142539978027344,-13.822322845458984,2.287112236022949
1716758401516940500,6.4539404296875,12.257014274597168,-15.14156723022461,1.3767971992492676
1716758401527072500,6.464072509765625,11.261253356933594,-15.584096908569336,0.9137206077575684
1716758401537204200,6.474204345703125,8.322811126708984,-16.65445899963379,-0.10476541519165039
1716758401547336200,6.484336181640625,5.18191385269165,-18.188894271850586,-0.24384188652038574
1716758401557468000,6.494468017578125,5.264101982116699,-18.678861618041992,1.5599913597106934
1716758401567599900,6.504599853515625,6.230500221252441,-18.973567962646484,2.681901216506958
1716758401577731600,6.514731689453125,7.709084510803223,-20.11141586303711,2.45357608795166
1716758401587863600,6.524863525390625,10.37529182434082,-20.092636108398438,3.4491093158721924
1716758401597995300,6.534995361328125,13.479348182678223,-19.216596603393555,2.9015607833862305
1716758401608127000,6.545126953125,15.977148056030273,-18.008291244506836,5.692066669464111
1716758401618259000,6.555259033203125,16.85590171813965,-17.580562591552734,8.05252742767334
1716758401628390700,6.565390625,16.33221435546875,-17.70154571533203,8.901204109191895
1716758401638522600,6.575522705078125,15.548532485961914,-17.458450317382812,8.747291564941406
1716758401648654300,6.585654296875,14.364541053771973,-17.194799423217773,8.132630348205566
1716758401658786300,6.595786376953125,13.14148235321045,-17.24094009399414,7.3951215744018555
1716758401668918000,6.60591796875,12.30521297454834,-17.091171264648438,6.544517517089844
1716758401679050000,6.616050048828125,12.171695709228516,-16.25672149658203,6.493288993835449
1716758401689181700,6.626181640625,12.082822799682617,-15.244312286376953,6.972541332244873
1716758401699313700,6.636313720703125,12.052988052368164,-14.404003143310547,7.577954292297363
1716758401709445400,6.6464453125,11.682889938354492,-13.420437812805176,7.487849235534668
1716758401719577300,6.656577392578125,10.762383460998535,-12.435060501098633,7.253076553344727
1716758401729709000,6.666708984375,9.867792129516602,-11.90315055847168,7.497607707977295
1716758401739841000,6.676841064453125,9.943157196044922,-11.435007095336914,7.4034504890441895
1716758401749972700,6.68697265625,10.364136695861816,-10.785787582397461,7.267927646636963
1716758401760104700,6.697104736328125,10.680160522460938,-10.031455993652344,7.36992883682251
1716758401770236400,6.707236328125,11.60510540008545,-8.91184139251709,7.9200921058654785
1716758401780368400,6.717368408203125,12.418331146240234,-7.960872650146484,9.142333984375
1716758401790500000,6.7275,13.23637580871582,-6.0820698738098145,9.476173400878906
1716758401800632000,6.737632080078125,14.951786994934082,-2.886946201324463,10.814091682434082
1716758401810763800,6.747763671875,15.093502044677734,-0.14785242080688477,13.271635055541992
1716758401820895700,6.757895751953125,13.238996505737305,2.8970866203308105,15.288961410522461
1716758401831027500,6.76802734375,9.521381378173828,5.509441375732422,16.35857582092285
1716758401841159400,6.778159423828125,5.7631683349609375,7.903841018676758,17.432029724121094
1716758401851291100,6.788291015625,3.412630081176758,10.120309829711914,18.863733291625977
1716758401861423000,6.798423095703125,1.415571928024292,11.448025703430176,19.89775848388672
1716758401871554800,6.808554931640625,-0.6782031059265137,11.929141998291016,19.60592269897461
1716758401881686800,6.818686767578125,-2.5044875144958496,12.212886810302734,17.731304168701172
1716758401891818500,6.828818603515625,-3.1962528228759766,11.950826644897461,16.144329071044922
1716758401901950500,6.838950439453125,-1.6548123359680176,12.43718147277832,14.655220985412598
1716758401912082200,6.849082275390625,0.3341383934020996,13.133620262145996,14.555306434631348
1716758401922214000,6.8592138671875,0.8150315284729004,13.089767456054688,14.954338073730469
1716758401932345900,6.869345947265625,3.750462055206299,13.719233512878418,15.795614242553711
1716758401942477600,6.8794775390625,11.585872650146484,16.403894424438477,18.751338958740234
1716758401952609500,6.889609619140625,18.167892456054688,20.313875198364258,23.9354305267334
1716758401962741200,6.8997412109375,21.645919799804688,23.674449920654297,29.767574310302734
1716758401972873200,6.909873291015625,21.244792938232422,25.560806274414062,31.591232299804688
1716758401983005000,6.9200048828125,16.993432998657227,25.70559310913086,31.510181427001953
1716758401993137000,6.930136962890625,13.053789138793945,24.938968658447266,31.433530807495117
1716758402003268600,6.9402685546875,11.405328750610352,24.234386444091797,31.373069763183594
1716758402013400600,6.950400634765625,11.251425743103027,23.68968391418457,31.33022689819336
1716758402023532300,6.9605322265625,10.251117706298828,22.11542510986328,31.298057556152344
1716758402033664300,6.970664306640625,8.884899139404297,19.967880249023438,31.272981643676758
1716758402043796000,6.9807958984375,7.181928634643555,18.57168960571289,31.264829635620117
1716758402053928000,6.990927978515625,6.372512340545654,16.281368255615234,31.286563873291016
1716758402064059600,7.0010595703125,7.497270584106445,12.393599510192871,31.345382690429688
1716758402074191600,7.011191650390625,10.359984397888184,7.8474626541137695,30.7847900390625
1716758402084323300,7.0213232421875,13.36644172668457,3.9909791946411133,25.373249053955078
1716758402094455300,7.031455322265625,15.782840728759766,0.8955979347229004,20.58722686767578
1716758402104587000,7.0415869140625,16.334331512451172,-1.8218107223510742,16.5189151763916
1716758402114719000,7.051718994140625,16.912912368774414,-3.840106964111328,12.982832908630371
1716758402124850700,7.0618505859375,17.01264190673828,-5.526266098022461,9.852495193481445
1716758402134982700,7.071982666015625,16.424053192138672,-6.3569254875183105,7.8615031242370605
1716758402145114400,7.0821142578125,14.370616912841797,-7.313302516937256,7.250722885131836
1716758402155246300,7.092246337890625,12.631122589111328,-8.249296188354492,6.937860012054443
1716758402165378000,7.1023779296875,12.452362060546875,-9.330960273742676,6.027983665466309
1716758402175510000,7.112510009765625,13.300788879394531,-10.455174446105957,5.158030033111572
1716758402185641700,7.122641845703125,14.126296043395996,-11.89074420928955,4.326474189758301
1716758402195773700,7.132773681640625,13.926424026489258,-13.14934253692627,3.2630691528320312
1716758402205905400,7.142905517578125,12.020889282226562,-13.533422470092773,2.4529452323913574
1716758402216037400,7.153037353515625,9.702563285827637,-14.113603591918945,2.5254883766174316
1716758402226169000,7.163169189453125,8.330300331115723,-14.404901504516602,2.3984222412109375
1716758402236300800,7.17330078125,8.943853378295898,-14.60666275024414,2.403756856918335
1716758402246432800,7.183432861328125,9.344858169555664,-15.003917694091797,3.0034618377685547
1716758402256564500,7.193564453125,10.249948501586914,-15.664127349853516,3.0404088497161865
1716758402266696400,7.203696533203125,11.72558307647705,-16.227218627929688,2.7466225624084473
1716758402276828200,7.213828125,12.892892837524414,-15.989084243774414,2.209674596786499
1716758402286960000,7.223960205078125,12.328829765319824,-15.365623474121094,1.9245749711990356
1716758402297091800,7.234091796875,10.457358360290527,-15.301916122436523,2.798837423324585
1716758402307223800,7.244223876953125,9.327672958374023,-15.913856506347656,3.618220329284668
1716758402317355500,7.25435546875,9.58760929107666,-17.256492614746094,3.6387555599212646
1716758402327487500,7.264487548828125,11.64840316772461,-18.584712982177734,1.944229245185852
1716758402337619200,7.274619140625,14.225298881530762,-18.764511108398438,2.289806365966797
1716758402347751200,7.284751220703125,14.91883659362793,-17.51736831665039,2.562638282775879
1716758402357883000,7.2948828125,12.717801094055176,-15.656667709350586,3.9485373497009277
1716758402368014800,7.305014892578125,9.150702476501465,-13.953121185302734,6.003078937530518
1716758402378146600,7.315146484375,6.131112098693848,-12.707344055175781,8.047087669372559
1716758402388278500,7.325278564453125,4.924037456512451,-11.995683670043945,9.43000316619873
1716758402398410200,7.33541015625,4.645452976226807,-12.115363121032715,10.353181838989258
1716758402408542200,7.345542236328125,4.650640964508057,-12.669523239135742,10.069869995117188
1716758402418674000,7.355673828125,4.50619649887085,-13.691194534301758,9.008094787597656
1716758402428806000,7.365805908203125,4.529808521270752,-14.525691986083984,7.697444438934326
1716758402438937600,7.3759375,4.14382266998291,-14.993186950683594,6.565013885498047
1716758402449069600,7.386069580078125,4.1545891761779785,-14.475704193115234,6.034849166870117
1716758402459201300,7.396201171875,3.9657444953918457,-13.718579292297363,6.736728668212891
1716758402469333200,7.406333251953125,4.2350945472717285,-13.248258590698242,9.4113130569458
1716758402479465000,7.41646484375,3.999335765838623,-13.765337944030762,11.609308242797852
1716758402489597000,7.426596923828125,2.6865200996398926,-15.058320999145508,10.876409530639648
1716758402499728600,7.436728759765625,1.3573799133300781,-15.608894348144531,2.0781173706054688
1716758402509860600,7.446860595703125,-0.3984346389770508,-15.257701873779297,-2.10191011428833
1716758402519992300,7.456992431640625,-1.0006799697875977,-14.27276611328125,-4.555708408355713
1716758402530124300,7.467124267578125,-1.5224180221557617,-12.963726043701172,-6.195930480957031
1716758402540256000,7.477256103515625,-4.378049373626709,-13.056913375854492,-8.930887222290039
1716758402550387700,7.4873876953125,-8.261852264404297,-14.575156211853027,-14.08027458190918
1716758402560519700,7.497519775390625,-11.950128555297852,-16.015506744384766,-19.911983489990234
1716758402570651400,7.5076513671875,-13.641878128051758,-16.714500427246094,-24.888835906982422
1716758402580783400,7.517783447265625,-13.552372932434082,-16.692611694335938,-28.032909393310547
1716758402590915000,7.5279150390625,-13.134366989135742,-16.48520851135254,-28.955148696899414
1716758402601047000,7.538047119140625,-13.220500946044922,-15.803854942321777,-27.54294776916504
1716758402611178800,7.5481787109375,-13.685295104980469,-14.529125213623047,-24.50819969177246
1716758402621310700,7.558310791015625,-13.29543685913086,-13.264801025390625,-20.85507583618164
1716758402631442400,7.5684423828125,-11.718921661376953,-12.519632339477539,-18.192668914794922
1716758402641574400,7.578574462890625,-9.933368682861328,-12.310583114624023,-16.905590057373047
1716758402651706000,7.5887060546875,-8.377174377441406,-12.36417007446289,-15.658096313476562
1716758402661838000,7.598838134765625,-7.149950981140137,-12.204166412353516,-13.54548168182373
1716758402671969800,7.6089697265625,-5.932608127593994,-11.857479095458984,-10.409456253051758
1716758402682101800,7.619101806640625,-4.055675029754639,-11.498882293701172,-6.9364495277404785
1716758402692233500,7.6292333984375,-1.4115419387817383,-11.385854721069336,-3.942312717437744
1716758402702365400,7.639365478515625,1.4170613288879395,-11.676338195800781,-2.5745296478271484
1716758402712497200,7.6494970703125,2.9319467544555664,-12.686967849731445,-2.4504833221435547
1716758402722629000,7.659629150390625,3.8730406761169434,-13.940065383911133,-2.899465560913086
1716758402732760800,7.6697607421875,5.053907871246338,-15.209807395935059,-3.0119643211364746
1716758402742892800,7.679892822265625,6.393284320831299,-16.276636123657227,-2.439058542251587
1716758402753024500,7.6900244140625,7.534272193908691,-16.805063247680664,-0.9138336181640625
1716758402763156500,7.700156494140625,8.467254638671875,-16.6407413482666,1.4381427764892578
1716758402773288200,7.7102880859375,9.256729125976562,-16.36105728149414,3.5506742000579834
1716758402783420200,7.720420166015625,9.925172805786133,-16.399703979492188,4.464820861816406
1716758402793552000,7.7305517578125,10.264741897583008,-16.741796493530273,3.9658899307250977
1716758402803683800,7.740683837890625,11.180051803588867,-17.105745315551758,4.5968780517578125
1716758402813815600,7.750815673828125,12.666326522827148,-17.212177276611328,5.436361312866211
1716758402823947500,7.760947509765625,14.20801067352295,-16.895559310913086,6.6852288246154785
1716758402834079200,7.771079345703125,15.306976318359375,-16.47027587890625,8.09794807434082
1716758402844211200,7.781211181640625,16.042766571044922,-15.998165130615234,9.157591819763184
1716758402854343000,7.791343017578125,16.20025062561035,-15.342738151550293,9.982000350952148
1716758402864475000,7.801474853515625,15.692696571350098,-14.58682918548584,10.522116661071777
1716758402874606600,7.811606689453125,15.182035446166992,-13.756299018859863,10.946484565734863
1716758402884738300,7.82173828125,14.92259407043457,-12.745237350463867,11.232136726379395
1716758402894870300,7.831870361328125,14.619772911071777,-12.001818656921387,11.256402015686035
1716758402905002000,7.842001953125,14.416952133178711,-11.690329551696777,10.529647827148438
1716758402915134000,7.852134033203125,13.958697319030762,-11.565448760986328,9.257695198059082
1716758402925265700,7.862265625,12.709563255310059,-11.668680191040039,7.538820743560791
1716758402935397600,7.872397705078125,11.336854934692383,-11.648513793945312,5.71824312210083
1716758402945529300,7.882529296875,10.453132629394531,-11.195032119750977,4.4623942375183105
1716758402955661300,7.892661376953125,10.582328796386719,-10.356511116027832,4.379369258880615
1716758402965793000,7.90279296875,11.158729553222656,-9.444513320922852,4.874325275421143
1716758402975925000,7.912925048828125,10.724515914916992,-8.634464263916016,5.005193710327148
1716758402986056700,7.923056640625,10.243630409240723,-7.71096134185791,4.604841709136963
1716758402996188700,7.933188720703125,9.603752136230469,-6.556743621826172,4.514677047729492
1716758403006320400,7.9433203125,9.153925895690918,-5.47750997543335,5.127578258514404
1716758403016452400,7.953452392578125,9.268898963928223,-4.232701778411865,6.286797523498535
1716758403026584000,7.963583984375,9.715603828430176,-3.1179556846618652,8.00080680847168
1716758403036716000,7.973716064453125,10.275032043457031,-2.280614137649536,9.438371658325195
1716758403046847700,7.98384765625,9.879551887512207,-1.4593737125396729,9.559272766113281
1716758403056979700,7.993979736328125,8.557733535766602,-0.0748436450958252,9.069100379943848
1716758403067111400,8.004111328125,7.250500202178955,1.760249376296997,9.546226501464844
1716758403077243400,8.014243408203125,5.548823356628418,3.531886339187622,11.588102340698242
1716758403087375000,8.024375,3.6577718257904053,5.071234703063965,14.31724739074707
1716758403097507000,8.034507080078125,2.637794256210327,6.006711483001709,16.4476261138916
1716758403107638800,8.044638671875,2.4525516033172607,6.44498348236084,16.8337345123291
1716758403117770800,8.054770751953125,2.8940253257751465,6.817092418670654,16.871362686157227
1716758403127902500,8.06490234375,2.6846117973327637,7.73418664932251,16.437705993652344
1716758403138034400,8.075034423828125,2.8075833320617676,9.387277603149414,16.58130645751953
1716758403148166100,8.085166259765625,4.010285377502441,11.924028396606445,17.756439208984375
1716758403158298000,8.095298095703125,4.673874855041504,14.506457328796387,20.260583877563477
1716758403168429800,8.105429931640625,4.576583385467529,17.217973709106445,23.46804428100586
1716758403178561800,8.115561767578125,4.82457971572876,19.084774017333984,26.068952560424805
1716758403188693500,8.125693603515625,7.500293254852295,21.17681312561035,28.76219940185547
1716758403198825200,8.1358251953125,10.454717636108398,23.585250854492188,31.152128219604492
1716758403208957200,8.145957275390625,10.449577331542969,25.005773544311523,31.108867645263672
1716758403219089000,8.1560888671875,8.640140533447266,24.801565170288086,31.094890594482422
1716758403229220900,8.166220947265625,6.557687282562256,23.10603904724121,31.09261703491211
1716758403239352600,8.1763525390625,6.049563407897949,20.976043701171875,31.082935333251953
1716758403249484500,8.186484619140625,6.8102498054504395,18.90256118774414,30.949291229248047
1716758403259616300,8.1966162109375,8.26527214050293,17.784879684448242,28.743698120117188
1716758403269748200,8.206748291015625,8.800971984863281,16.143627166748047,28.512664794921875
1716758403279880000,8.2168798828125,8.370798110961914,14.09066104888916,27.991485595703125
1716758403290012000,8.227011962890625,8.951733589172363,12.323999404907227,26.41974639892578
1716758403300143600,8.2371435546875,10.175328254699707,11.044866561889648,25.104419708251953
1716758403310275600,8.247275634765625,12.849392890930176,9.585918426513672,24.122211456298828
1716758403320407300,8.2574072265625,15.759085655212402,7.7112202644348145,22.893444061279297
1716758403330539300,8.267539306640625,16.124813079833984,6.038662910461426,21.082237243652344
1716758403340671000,8.2776708984375,15.337495803833008,4.780641555786133,19.815237045288086
1716758403350803000,8.287802978515625,13.870424270629883,4.062920570373535,19.72734260559082
1716758403360934700,8.2979345703125,13.137301445007324,3.003784656524658,20.0032958984375
1716758403371066600,8.308066650390625,13.715076446533203,1.3942561149597168,19.42869758605957
1716758403381198300,8.3181982421875,14.764900207519531,-0.7669672966003418,17.73577308654785
1716758403391330300,8.328330322265625,16.427082061767578,-3.082159996032715,15.246085166931152
1716758403401462000,8.3384619140625,16.97882080078125,-5.169710159301758,12.490079879760742
1716758403411594000,8.348593994140625,16.508256912231445,-7.03038215637207,10.573040008544922
1716758403421725700,8.3587255859375,15.493507385253906,-8.782746315002441,9.226621627807617
1716758403431857700,8.368857666015625,14.98759937286377,-10.492319107055664,7.811140537261963
1716758403441989400,8.3789892578125,15.18311882019043,-12.109208106994629,6.4160003662109375
1716758403452121300,8.389121337890625,15.703534126281738,-13.538796424865723,5.281816005706787
1716758403462253000,8.399253173828125,15.858094215393066,-14.929051399230957,4.1323981285095215
1716758403472385000,8.409385009765625,15.452913284301758,-16.277069091796875,3.29640793800354
1716758403482516700,8.419516845703125,14.495098114013672,-17.389476776123047,2.3966991901397705
1716758403492648700,8.429648681640625,13.406391143798828,-17.96457290649414,1.614408254623413
1716758403502780400,8.439780517578125,12.243846893310547,-17.53714370727539,1.3008208274841309
1716758403512912100,8.449912109375,11.127408981323242,-16.65477180480957,1.1563119888305664
1716758403523044000,8.460044189453125,11.17385196685791,-15.804380416870117,0.5404890775680542
1716758403533175800,8.47017578125,11.688882827758789,-15.300081253051758,0.6367703676223755
1716758403543307800,8.480307861328125,11.627124786376953,-14.927062034606934,1.2677273750305176
1716758403553439500,8.490439453125,11.30805778503418,-14.34885311126709,1.5876466035842896
1716758403563571500,8.500571533203125,10.432661056518555,-14.036615371704102,2.8030519485473633
1716758403573703200,8.510703125,9.767965316772461,-14.304204940795898,3.421727180480957
1716758403583835100,8.520835205078125,9.354960441589355,-14.504995346069336,2.560802698135376
1716758403593966800,8.530966796875,9.287692070007324,-14.593169212341309,2.1879639625549316
1716758403604098800,8.541098876953125,8.732170104980469,-14.66164779663086,1.9570057392120361
1716758403614230500,8.55123046875,8.0421142578125,-14.559581756591797,1.8502776622772217
1716758403624362500,8.561362548828125,7.534239292144775,-14.148946762084961,1.9418007135391235
1716758403634494200,8.571494140625,7.188488483428955,-13.923521041870117,1.643130898475647
1716758403644626200,8.581626220703125,7.7613205909729,-14.002890586853027,1.0351934432983398
1716758403654758000,8.5917578125,7.9420037269592285,-14.137527465820312,0.33465027809143066
1716758403664889900,8.601889892578125,7.856850624084473,-14.211694717407227,0.13156390190124512
1716758403675021600,8.612021484375,7.315244197845459,-13.8250732421875,0.902815580368042
1716758403685153500,8.622153564453125,6.081141948699951,-13.472604751586914,2.458709478378296
1716758403695285200,8.63228515625,4.41323184967041,-13.428316116333008,3.5189690589904785
1716758403705417200,8.642417236328125,2.3656511306762695,-13.594478607177734,3.385389566421509
1716758403715549000,8.652548828125,0.9898958206176758,-13.869571685791016,2.9479708671569824
1716758403725681000,8.662680908203125,1.0755786895751953,-14.26913070678711,2.7810771465301514
1716758403735812600,8.6728125,3.126335620880127,-14.662324905395508,2.077150583267212
1716758403745944600,8.682944580078125,6.664881229400635,-14.78734016418457,1.428232192993164
1716758403756076300,8.693076171875,7.8607177734375,-14.514103889465332,0.9531617164611816
1716758403766208300,8.703208251953125,7.501389503479004,-13.316886901855469,1.1560492515563965
1716758403776340000,8.713340087890625,5.327884197235107,-12.063576698303223,1.7814970016479492
1716758403786472000,8.723471923828125,2.2091288566589355,-11.177156448364258,1.3247694969177246
1716758403796603600,8.733603759765625,-0.4281940460205078,-10.506000518798828,0.5501012802124023
1716758403806735600,8.743735595703125,-1.8073325157165527,-9.891487121582031,-0.3573732376098633
1716758403816867300,8.753867431640625,-2.241215229034424,-9.61800765991211,-1.8523731231689453
1716758403826999300,8.763999267578125,-3.2748546600341797,-10.171477317810059,-4.341732978820801
1716758403837131000,8.774131103515625,-5.384433746337891,-11.285181045532227,-7.974686145782471
1716758403847262700,8.7842626953125,-7.974025726318359,-12.255224227905273,-12.325291633605957
1716758403857394700,8.794394775390625,-10.025984764099121,-12.675006866455078,-16.570253372192383
1716758403867526400,8.8045263671875,-11.163311004638672,-12.457415580749512,-19.74062156677246
1716758403877658400,8.814658447265625,-11.658771514892578,-11.93637466430664,-21.63137435913086
1716758403887790000,8.8247900390625,-11.655508041381836,-11.327776908874512,-21.92864227294922
1716758403897922000,8.834922119140625,-10.780828475952148,-10.243575096130371,-20.47607421875
1716758403908053800,8.8450537109375,-9.224515914916992,-8.867424011230469,-18.18972396850586
1716758403918185700,8.855185791015625,-7.155822277069092,-7.6799116134643555,-15.754508972167969
1716758403928317400,8.8653173828125,-4.872185707092285,-6.695229530334473,-13.261921882629395
1716758403938449400,8.875449462890625,-3.1638402938842773,-5.666228771209717,-10.707035064697266
1716758403948581000,8.8855810546875,-2.4560623168945312,-4.957577705383301,-8.694710731506348
1716758403958713000,8.895713134765625,-2.364043712615967,-4.702763080596924,-6.8471503257751465
1716758403968844800,8.9058447265625,-2.0986695289611816,-4.6069793701171875,-5.1492838859558105
1716758403978976800,8.915976806640625,-1.1737112998962402,-4.651644229888916,-3.4453744888305664
1716758403989108500,8.9261083984375,-0.25693845748901367,-4.834840774536133,-1.8856315612792969
1716758403999240400,8.936240478515625,0.44338560104370117,-5.518791198730469,-0.6506192684173584
1716758404009372200,8.9463720703125,1.12135648727417,-6.567290306091309,0.45163416862487793
1716758404019504000,8.956504150390625,3.0090432167053223,-7.657083034515381,1.1986494064331055
1716758404029635800,8.9666357421875,4.479931354522705,-8.752614974975586,0.9353847503662109
1716758404039767800,8.976767822265625,5.276101589202881,-10.204856872558594,-0.15816879272460938
1716758404049899500,8.9868994140625,5.7957682609558105,-11.578591346740723,-1.6632022857666016
1716758404060031500,8.997031494140625,5.491890907287598,-12.846149444580078,-2.543323516845703
1716758404070163200,9.0071630859375,4.589455604553223,-13.588274002075195,-2.2906129360198975
1716758404080295200,9.017295166015625,3.5431137084960938,-13.988677978515625,-1.1765490770339966
1716758404090427000,9.027427001953125,3.445641040802002,-14.25947380065918,0.7401502728462219
1716758404100558800,9.037558837890625,4.405456066131592,-14.035972595214844,2.8822813034057617
1716758404110690600,9.047690673828125,5.305307388305664,-14.02334976196289,2.4348905086517334
1716758404120822500,9.057822509765625,6.421689987182617,-14.068367004394531,4.137528896331787
1716758404130954200,9.067954345703125,7.702477931976318,-14.424627304077148,5.543214321136475
1716758404141086200,9.078086181640625,9.82111930847168,-14.93989372253418,7.038661479949951
1716758404151218000,9.088218017578125,13.014354705810547,-15.08367919921875,9.222339630126953
1716758404161349600,9.098349609375,15.544994354248047,-14.509891510009766,10.699239730834961
1716758404171481600,9.108481689453125,16.696659088134766,-13.529731750488281,11.252605438232422
1716758404181613300,9.11861328125,16.368684768676758,-12.91740608215332,10.769347190856934
1716758404191745300,9.128745361328125,15.369173049926758,-12.634507179260254,8.846590042114258
1716758404201877000,9.138876953125,14.985227584838867,-12.39803695678711,6.531438827514648
1716758404212009000,9.149009033203125,15.29185962677002,-12.207572937011719,4.851816177368164
1716758404222140700,9.159140625,15.612319946289062,-12.287335395812988,3.585941791534424
1716758404232272600,9.169272705078125,16.0978946685791,-12.094779968261719,2.0315070152282715
1716758404242404400,9.179404296875,16.482269287109375,-11.629416465759277,0.8110594749450684
1716758404252536300,9.189536376953125,15.841022491455078,-11.067415237426758,-0.04456329345703125
1716758404262668000,9.19966796875,14.301651000976562,-10.466707229614258,-0.41328859329223633
1716758404272800000,9.209800048828125,12.927579879760742,-9.926910400390625,-0.48631906509399414
1716758404282931700,9.219931640625,11.815793991088867,-9.598686218261719,-0.3309140205383301
1716758404293063700,9.230063720703125,11.052030563354492,-9.333236694335938,-0.15540695190429688
1716758404303195400,9.2401953125,11.592850685119629,-8.476577758789062,0.09159612655639648
1716758404313327400,9.250327392578125,13.340215682983398,-6.669503211975098,1.6840829849243164
1716758404323459000,9.260458984375,15.379161834716797,-4.802984237670898,4.366879463195801
1716758404333591000,9.270591064453125,16.04884147644043,-3.170444965362549,6.3843994140625
1716758404343722800,9.28072265625,14.756080627441406,-1.5725865364074707,7.33875846862793
1716758404353854700,9.290854736328125,12.743245124816895,0.38643813133239746,8.078739166259766
1716758404363986400,9.300986328125,10.358287811279297,2.0047378540039062,9.120379447937012
1716758404374118400,9.311118408203125,8.007460594177246,3.3055479526519775,9.55789566040039
1716758404384250000,9.32125,6.818140983581543,4.434609413146973,10.035238265991211
1716758404394382000,9.331382080078125,6.228107452392578,4.382565975189209,10.43596076965332
1716758404404513800,9.341513671875,5.177229881286621,3.9798827171325684,9.803787231445312
1716758404414645800,9.351645751953125,4.132529258728027,4.375027656555176,9.06121826171875
1716758404424777500,9.361777587890625,3.117985248565674,5.49498176574707,10.001768112182617
1716758404434909400,9.371909423828125,1.299797773361206,7.081698417663574,12.463323593139648
1716758404445041200,9.382041259765625,-0.5931341648101807,8.502673149108887,15.701169967651367
1716758404455173000,9.392173095703125,-1.704791784286499,9.18720817565918,18.33826446533203
1716758404465304800,9.402304931640625,-1.9201276302337646,10.039131164550781,19.100271224975586
1716758404475436500,9.4124365234375,-1.7640275955200195,10.82101058959961,19.514575958251953
1716758404485568500,9.422568603515625,0.7189888954162598,12.015628814697266,19.53635025024414
1716758404495700200,9.4327001953125,5.066664695739746,13.75283145904541,20.309852600097656
1716758404505832200,9.442832275390625,8.624429702758789,16.26345443725586,23.205345153808594
1716758404515964000,9.4529638671875,10.000717163085938,18.820194244384766,28.488615036010742
1716758404526096000,9.463095947265625,9.592301368713379,20.420612335205078,31.21181297302246
1716758404536227600,9.4732275390625,9.179143905639648,21.157968521118164,31.16069984436035
1716758404546359600,9.483359619140625,8.744970321655273,20.85225486755371,31.10983657836914
1716758404556491300,9.4934912109375,8.577733039855957,19.80240821838379,31.04802703857422
1716758404566623200,9.503623291015625,7.2848219871521,18.596220016479492,30.966806411743164
1716758404576755000,9.5137548828125,4.977665901184082,16.48533058166504,30.875995635986328
1716758404586887000,9.523886962890625,4.171083450317383,14.981511116027832,30.800968170166016
1716758404597018600,9.5340185546875,5.083235263824463,13.318119049072266,30.759376525878906
1716758404607150600,9.544150634765625,7.690223217010498,11.577701568603516,30.75076675415039
1716758404617282300,9.5542822265625,10.41995620727539,9.159685134887695,30.03853988647461
1716758404627414300,9.564414306640625,12.57895278930664,6.336475372314453,28.791427612304688
1716758404637546000,9.5745458984375,13.555527687072754,3.351975440979004,25.876873016357422
1716758404647678000,9.584677978515625,13.251672744750977,1.3473749160766602,22.10202407836914
1716758404657809700,9.5948095703125,12.017401695251465,0.28275489807128906,18.550077438354492
1716758404667941600,9.604941650390625,10.755581855773926,-0.25385141372680664,16.38204574584961
1716758404678073300,9.6150732421875,10.031739234924316,-0.7872672080993652,15.084351539611816
1716758404688205300,9.625205322265625,9.97642993927002,-1.4860138893127441,13.72317123413086
1716758404698337000,9.6353369140625,9.960409164428711,-2.4160122871398926,12.152265548706055
1716758404708469000,9.645468994140625,10.077533721923828,-3.657956600189209,10.098628997802734
1716758404718600700,9.6556005859375,9.441557884216309,-4.721174716949463,7.387293338775635
1716758404728732700,9.665732666015625,8.885071754455566,-5.465443134307861,5.136714935302734
1716758404738864400,9.675864501953125,7.993531703948975,-6.190999984741211,3.686924934387207
1716758404748996400,9.685996337890625,7.811005592346191,-6.538865089416504,3.0399551391601562
1716758404759128000,9.696128173828125,8.648770332336426,-6.911887168884277,3.341782569885254
1716758404769260000,9.706260009765625,9.573454856872559,-7.821002960205078,3.921463966369629
1716758404779391700,9.716391845703125,10.032841682434082,-9.212021827697754,2.938457489013672
1716758404789523500,9.7265234375,10.777484893798828,-10.440695762634277,1.1587719917297363
1716758404799655400,9.736655517578125,11.251922607421875,-11.22131633758545,-0.5340151786804199
1716758404809787100,9.746787109375,11.432076454162598,-11.774063110351562,-1.60498046875
1716758404819919000,9.756919189453125,11.20787239074707,-12.070046424865723,-1.2448511123657227
1716758404830050800,9.76705078125,10.610830307006836,-12.240646362304688,-0.5507564544677734
1716758404840182800,9.777182861328125,9.828784942626953,-12.303970336914062,0.2534768581390381
1716758404850314500,9.787314453125,9.260139465332031,-12.4014892578125,1.168828010559082
1716758404860446500,9.797446533203125,8.853243827819824,-12.269704818725586,2.039407253265381
1716758404870578200,9.807578125,9.399667739868164,-12.52694320678711,3.072333574295044
1716758404880710100,9.817710205078125,10.466668128967285,-13.00656509399414,3.5022804737091064
1716758404890841900,9.827841796875,11.231664657592773,-13.393434524536133,3.2003586292266846
1716758404900973800,9.837973876953125,11.304325103759766,-13.419454574584961,3.0853471755981445
1716758404911139800,9.848139892578125,10.43133544921875,-13.200262069702148,3.364677906036377
1716758404921271800,9.858271728515625,9.410015106201172,-12.928000450134277,4.015381813049316
1716758404931403500,9.868403564453125,8.08133316040039,-12.651592254638672,4.880763530731201
1716758404941535500,9.878535400390625,7.2379021644592285,-12.100725173950195,5.902489185333252
1716758404951667200,9.888667236328125,7.061385631561279,-12.053179740905762,7.418796539306641
1716758404961799200,9.898799072265625,7.487245082855225,-12.543139457702637,8.171497344970703
1716758404971931000,9.908930908203125,8.424551010131836,-13.04758358001709,7.94766902923584
1716758404982062800,9.919062744140625,8.685738563537598,-13.304915428161621,7.531691074371338
1716758404992194600,9.929194580078125,7.958548545837402,-13.38631820678711,6.888596534729004
1716758405002326500,9.939326416015625,6.603454113006592,-13.230517387390137,6.518609523773193
1716758405012458200,9.949458251953125,6.065140247344971,-12.654573440551758,7.579639911651611
1716758405022590200,9.959590087890625,5.962096214294434,-12.054435729980469,9.27905559539795
1716758405032722000,9.969721923828125,6.560659408569336,-11.699655532836914,10.57973575592041
1716758405042854000,9.97985400390625,8.395370483398438,-12.262368202209473,11.26185417175293
1716758405052985600,9.989985595703125,10.447172164916992,-12.903544425964355,10.131964683532715
1716758405063117600,10.00011767578125,10.09982681274414,-12.856681823730469,6.52276611328125
1716758405073249300,10.010249267578125,7.672715187072754,-12.822986602783203,5.20952033996582
1716758405083381200,10.02038134765625,4.652687072753906,-12.803821563720703,4.009973526000977
1716758405093513000,10.030512939453125,2.6561942100524902,-13.357122421264648,1.7635035514831543
1716758405103645000,10.04064501953125,1.4342865943908691,-13.819300651550293,-1.09834623336792
1716758405113776600,10.050776611328125,-0.6858272552490234,-14.264089584350586,-3.9529995918273926
1716758405123908400,10.060908447265625,-3.9268345832824707,-14.693154335021973,-7.031345367431641
1716758405134040300,10.071040283203125,-6.51541805267334,-15.908259391784668,-10.98470401763916
1716758405144172000,10.081172119140625,-7.772294521331787,-17.744524002075195,-15.00802230834961
1716758405154304000,10.091303955078125,-8.292490005493164,-18.792278289794922,-17.874483108520508
1716758405164435700,10.101435791015625,-9.310958862304688,-18.576457977294922,-18.143287658691406
1716758405174567700,10.111567626953125,-10.56364631652832,-17.414987564086914,-16.06996726989746
1716758405184699400,10.121699462890625,-11.61673355102539,-15.7030029296875,-12.957258224487305
1716758405194831400,10.131831298828125,-12.84028148651123,-13.847646713256836,-9.968849182128906
1716758405204963000,10.141963134765625,-15.310507774353027,-12.54687786102295,-8.487822532653809
1716758405215095000,10.152094970703125,-17.757848739624023,-12.148029327392578,-9.05190372467041
1716758405225226800,10.162226806640625,-19.671253204345703,-12.537160873413086,-10.617317199707031
1716758405235358700,10.172358642578125,-20.04172134399414,-12.923608779907227,-11.884264945983887
1716758405245490400,10.182490478515625,-18.401363372802734,-12.62364387512207,-11.422402381896973
1716758405255622400,10.192622314453125,-15.199199676513672,-11.974954605102539,-9.662703514099121
1716758405265754000,10.202754150390625,-11.607398986816406,-10.801070213317871,-7.47599458694458
1716758405275886000,10.212885986328125,-8.192358016967773,-9.757728576660156,-5.407735824584961
1716758405286017800,10.223017822265625,-5.521645545959473,-9.210256576538086,-4.239999771118164
1716758405296149800,10.233149658203125,-3.529001235961914,-9.43125057220459,-4.282540321350098
1716758405306281500,10.243281494140625,-2.3745923042297363,-10.621976852416992,-4.87239408493042
1716758405316413400,10.253413330078125,-0.9896087646484375,-11.7893705368042,-5.034082889556885
1716758405326545200,10.263545166015625,1.1989097595214844,-13.034568786621094,-4.927036285400391
1716758405336677000,10.273677001953125,2.7655415534973145,-14.293733596801758,-4.043976783752441
1716758405346808800,10.283808837890625,4.934467315673828,-14.865266799926758,-2.0223052501678467
1716758405356940800,10.29394091796875,7.809873580932617,-14.88458251953125,0.4619755744934082
1716758405367072500,10.304072509765625,10.365886688232422,-14.502689361572266,3.4505739212036133
1716758405377204500,10.31420458984375,11.729766845703125,-13.947747230529785,3.0412020683288574
1716758405387336200,10.324336181640625,12.145559310913086,-13.52701187133789,4.7714104652404785
1716758405397468200,10.33446826171875,12.779672622680664,-13.240476608276367,5.075103282928467
1716758405407599900,10.344599853515625,13.60059928894043,-13.551044464111328,4.791937828063965
1716758405417731800,10.35473193359375,14.591140747070312,-14.113387107849121,3.956326723098755
1716758405427863600,10.364863525390625,16.478076934814453,-14.375968933105469,3.5459840297698975
1716758405437995300,10.374995361328125,18.93060302734375,-14.123910903930664,4.363169193267822
1716758405448127200,10.385127197265625,20.131511688232422,-13.483449935913086,5.964687347412109
1716758405458259000,10.395259033203125,19.849592208862305,-12.347766876220703,7.426870346069336
1716758405468391000,10.405390869140625,19.445383071899414,-10.5890474319458,9.075456619262695
1716758405478522600,10.415522705078125,19.51753044128418,-9.22264289855957,10.225558280944824
1716758405488654600,10.425654541015625,20.098474502563477,-8.373005867004395,10.277519226074219
1716758405498786300,10.435786376953125,20.37335777282715,-7.859827995300293,9.670578956604004
1716758405508918300,10.445918212890625,19.68122100830078,-7.944816589355469,8.957024574279785
1716758405519050000,10.456050048828125,17.924741744995117,-8.279616355895996,7.748856544494629
1716758405529182000,10.466181884765625,15.177641868591309,-8.573444366455078,6.2508015632629395
1716758405539313700,10.476313720703125,12.171991348266602,-8.414642333984375,5.138121604919434
1716758405549445600,10.486445556640625,9.662164688110352,-8.083365440368652,4.613763809204102
1716758405559577300,10.496577392578125,8.245849609375,-7.932991027832031,3.9460859298706055
1716758405569709300,10.506709228515625,7.641652584075928,-7.54478120803833,3.0165066719055176
1716758405579841000,10.516841064453125,7.308224201202393,-7.033615589141846,2.2948341369628906
1716758405589973000,10.526972900390625,6.637613296508789,-6.32951545715332,1.9396147727966309
1716758405600104700,10.537104736328125,5.792671203613281,-5.101315975189209,2.3817849159240723
1716758405610236700,10.547236572265625,4.694303035736084,-3.8047404289245605,3.9185714721679688
1716758405620368400,10.557368408203125,3.9094033241271973,-2.7930960655212402,4.933316230773926
1716758405630500400,10.567500244140625,3.778118371963501,-1.9675111770629883,5.077311992645264
1716758405640632000,10.577632080078125,4.155697822570801,-1.0709824562072754,4.729509353637695
1716758405650764000,10.587763916015625,4.798385143280029,0.5412130355834961,4.901800155639648
1716758405660895700,10.597895751953125,4.683948516845703,2.6811509132385254,6.723729133605957
1716758405671027700,10.60802783203125,3.083028554916382,5.002589225769043,10.256515502929688
1716758405681159400,10.618159423828125,-0.10755980014801025,6.697625160217285,13.245908737182617
1716758405691291400,10.62829150390625,-2.4159586429595947,7.04638671875,14.194110870361328
1716758405701423000,10.638423095703125,-2.7438154220581055,6.863883018493652,13.157831192016602
1716758405711555000,10.64855517578125,-1.3729522228240967,6.868658542633057,11.890832901000977
1716758405721686800,10.658686767578125,0.23108220100402832,7.258451461791992,11.880574226379395
1716758405731818800,10.66881884765625,0.30320119857788086,7.978157043457031,11.859241485595703
1716758405741950500,10.678950439453125,-0.3449821472167969,8.957006454467773,13.729740142822266
1716758405752082400,10.68908251953125,-0.3647794723510742,9.470407485961914,14.806573867797852
1716758405762214100,10.699214111328125,0.5758121013641357,9.59133529663086,14.890710830688477
1716758405772345900,10.709345947265625,0.7816329002380371,9.157052993774414,14.302061080932617
1716758405782477800,10.719477783203125,1.2313287258148193,9.379240036010742,14.291966438293457
1716758405792609500,10.729609619140625,0.14135098457336426,10.69589614868164,12.450236320495605
1716758405802741500,10.739741455078125,0.778893232345581,13.175917625427246,14.729803085327148
1716758405812873200,10.749873291015625,2.6036105155944824,16.05215072631836,19.507247924804688
1716758405823005200,10.760005126953125,3.8115971088409424,19.75520133972168,26.199790954589844
1716758405833137000,10.770136962890625,3.3898627758026123,21.360387802124023,30.785268783569336
1716758405843268900,10.780268798828125,2.4529809951782227,19.919273376464844,30.749439239501953
1716758405853400600,10.790400634765625,2.4336280822753906,17.889053344726562,30.736949920654297
1716758405863532500,10.800532470703125,1.8769209384918213,16.507415771484375,27.394214630126953
1716758405873664300,10.810664306640625,0.0034482479095458984,15.59347152709961,24.496891021728516
1716758405883796200,10.820796142578125,-0.8300251960754395,15.71629524230957,23.67380142211914
1716758405893928000,10.830927978515625,-1.0867557525634766,15.656880378723145,24.631019592285156
1716758405904060000,10.841059814453125,0.768909215927124,14.934414863586426,26.135093688964844
1716758405914191600,10.851191650390625,3.5351500511169434,14.347217559814453,27.344558715820312
1716758405924323600,10.861323486328125,5.980567932128906,13.553686141967773,29.051189422607422
1716758405934455300,10.871455322265625,6.8580217361450195,12.061424255371094,30.082897186279297
1716758405944587300,10.881587158203125,7.163017749786377,9.464021682739258,28.755699157714844
1716758405954719000,10.891718994140625,8.540342330932617,7.1435322761535645,25.084672927856445
1716758405964851000,10.901850830078125,10.883655548095703,5.053088188171387,20.691417694091797
1716758405974982700,10.911982666015625,13.753427505493164,4.021731376647949,17.193893432617188
1716758405985114600,10.922114501953125,14.14742660522461,3.301506519317627,15.565937042236328
1716758405995246300,10.932246337890625,13.896429061889648,2.464637279510498,14.76712417602539
1716758406005378300,10.94237841796875,13.2782564163208,1.388972282409668,13.695735931396484
1716758406015510000,10.952510009765625,13.680020332336426,0.41368865966796875,12.752056121826172
1716758406025642000,10.96264208984375,13.578709602355957,-0.3467216491699219,11.702308654785156
1716758406035773700,10.972773681640625,13.501672744750977,-0.9322233200073242,10.96853256225586
1716758406045905700,10.98290576171875,12.435121536254883,-1.7070817947387695,10.564339637756348
1716758406056037400,10.993037353515625,11.149284362792969,-2.9117746353149414,9.972270965576172
1716758406066169300,11.00316943359375,10.810816764831543,-4.341691017150879,8.993141174316406
1716758406076301000,11.013301025390625,11.02296257019043,-6.040538787841797,7.695542812347412
1716758406086432800,11.023432861328125,11.510239601135254,-7.976909637451172,6.148303985595703
1716758406096564700,11.033564697265625,11.594892501831055,-9.641928672790527,4.438979148864746
1716758406106696400,11.043696533203125,10.786661148071289,-11.064064979553223,2.914098024368286
1716758406116828400,11.053828369140625,9.501327514648438,-12.033308029174805,1.6026790142059326
1716758406126960000,11.063960205078125,8.520483016967773,-12.463675498962402,0.2880585193634033
1716758406137092000,11.074092041015625,7.666704177856445,-12.431483268737793,0.6511101722717285
1716758406147223800,11.084223876953125,7.474486351013184,-12.273170471191406,1.2347742319107056
1716758406157355800,11.094355712890625,7.478843688964844,-12.37968921661377,1.2391119003295898
1716758406167487500,11.104487548828125,8.053094863891602,-12.818041801452637,0.1595563292503357
1716758406177619500,11.114619384765625,8.674217224121094,-13.075713157653809,-0.6552071571350098
1716758406187751200,11.124751220703125,9.676579475402832,-13.076805114746094,-0.852179765701294
1716758406197883100,11.134883056640625,10.371040344238281,-12.998181343078613,-0.46988990902900696
1716758406208014800,11.145014892578125,10.507711410522461,-12.418654441833496,0.7028923034667969
1716758406218146800,11.155146728515625,10.096235275268555,-11.374180793762207,2.6459107398986816
1716758406228278500,11.165278564453125,9.63650894165039,-10.71524715423584,2.9144039154052734
1716758406238410500,11.175410400390625,9.831671714782715,-10.392024993896484,4.730708122253418
1716758406248542200,11.185542236328125,9.657697677612305,-10.262207984924316,5.787660598754883
1716758406258674200,11.195674072265625,8.934907913208008,-10.80468463897705,6.274298667907715
1716758406268806000,11.205805908203125,7.768643379211426,-11.490848541259766,5.903304100036621
1716758406278937900,11.215937744140625,6.730328559875488,-12.09581184387207,4.391837120056152
1716758406289069600,11.226069580078125,6.220254421234131,-12.231513977050781,4.312037467956543
1716758406299201500,11.236201416015625,6.9524312019348145,-12.206762313842773,4.13278865814209
1716758406309333200,11.246333251953125,9.210502624511719,-12.600866317749023,3.6717371940612793
1716758406319465200,11.25646533203125,9.231769561767578,-12.74135684967041,3.9481394290924072
1716758406329597000,11.266596923828125,8.722442626953125,-12.583094596862793,5.144498825073242
1716758406339729000,11.27672900390625,8.441593170166016,-11.778985023498535,5.3561248779296875
1716758406349860600,11.286860595703125,7.3443450927734375,-11.175021171569824,6.953502655029297
1716758406359992600,11.29699267578125,6.389343738555908,-11.19735050201416,7.996760368347168
1716758406370124300,11.307124267578125,6.003535270690918,-11.519790649414062,6.666843891143799
1716758406380256300,11.31725634765625,5.738591194152832,-11.59521198272705,5.717190265655518
1716758406390388000,11.327387939453125,5.4419989585876465,-11.963891983032227,4.536592483520508
1716758406400519700,11.337519775390625,6.452407360076904,-12.93769359588623,3.232241630554199
1716758406410651600,11.347651611328125,7.403299331665039,-13.432771682739258,2.194084644317627
1716758406420783400,11.357783447265625,6.736080646514893,-12.782798767089844,1.5566058158874512
1716758406430915300,11.367915283203125,3.81827974319458,-11.324078559875488,1.5916013717651367
1716758406441047000,11.378047119140625,-1.7023038864135742,-10.332908630371094,1.2447209358215332
1716758406451179000,11.388178955078125,-6.945793628692627,-10.840079307556152,-1.3685989379882812
1716758406461310700,11.398310791015625,-9.22232723236084,-11.34377670288086,-5.025434494018555
1716758406471442700,11.408442626953125,-8.550006866455078,-11.922735214233398,-8.352256774902344
1716758406481574400,11.418574462890625,-5.41330623626709,-12.515396118164062,-10.65188217163086
1716758406491706400,11.428706298828125,-4.042634963989258,-12.791812896728516,-11.95343017578125
1716758406501838000,11.438838134765625,-4.67476749420166,-13.037481307983398,-13.421235084533691
1716758406511970000,11.448969970703125,-6.250844478607178,-13.104231834411621,-14.603689193725586
1716758406522101800,11.459101806640625,-8.209210395812988,-12.759042739868164,-15.565210342407227
1716758406532233700,11.469233642578125,-10.109352111816406,-12.149776458740234,-16.19060516357422
1716758406542365400,11.479365478515625,-11.60579776763916,-11.323779106140137,-16.185543060302734
1716758406552497400,11.489497314453125,-12.352678298950195,-10.398733139038086,-15.118668556213379
1716758406562629000,11.499629150390625,-11.922897338867188,-9.362889289855957,-12.966243743896484
1716758406572761000,11.509760986328125,-10.352066040039062,-8.223594665527344,-10.689712524414062
1716758406582892800,11.519892822265625,-8.266197204589844,-7.3853936195373535,-9.192877769470215
1716758406593024800,11.530024658203125,-5.827498912811279,-6.489519119262695,-8.043008804321289
1716758406603156500,11.540156494140625,-4.401282787322998,-5.116103649139404,-7.046327114105225
1716758406613288400,11.550288330078125,-3.5657358169555664,-3.602750778198242,-5.702732563018799
1716758406623420200,11.560420166015625,-2.143040180206299,-2.3804569244384766,-4.981991767883301
1716758406633552100,11.57055224609375,-1.0963144302368164,-2.077756881713867,-5.380415916442871
1716758406643683800,11.580683837890625,-0.44028615951538086,-2.9403438568115234,-6.287264347076416
1716758406653815800,11.59081591796875,0.5364508628845215,-4.234442710876465,-6.961760520935059
1716758406663947500,11.600947509765625,1.9120311737060547,-5.796095848083496,-6.995067596435547
1716758406674079500,11.61107958984375,4.190585613250732,-7.230826377868652,-5.801635265350342
1716758406684211200,11.621211181640625,7.538111209869385,-7.7597808837890625,-3.2964224815368652
1716758406694343200,11.63134326171875,9.271493911743164,-6.945213317871094,-1.1063733100891113
1716758406704475000,11.641474853515625,9.570992469787598,-6.44365119934082,0.3643074035644531
1716758406714606600,11.651606689453125,8.813482284545898,-7.844837188720703,-0.3881821632385254
1716758406724738600,11.661738525390625,6.780431270599365,-10.32712173461914,-2.2172555923461914
1716758406734870300,11.671870361328125,5.726047992706299,-12.617891311645508,-3.3164501190185547
1716758406745002200,11.682002197265625,6.335094451904297,-14.99712085723877,-3.0538597106933594
1716758406755134000,11.692134033203125,8.146944046020508,-16.08406639099121,-0.6978738307952881
1716758406765266000,11.702265869140625,10.10629940032959,-16.051969528198242,2.9990463256835938
1716758406775397600,11.712397705078125,11.980012893676758,-15.27810287475586,2.4737296104431152
1716758406785529600,11.722529541015625,12.410587310791016,-14.196714401245117,6.53245210647583
1716758406795661300,11.732661376953125,11.732442855834961,-13.387568473815918,9.841438293457031
1716758406805793300,11.742793212890625,10.256858825683594,-12.98274040222168,11.24728775024414
1716758406815925000,11.752925048828125,10.03999137878418,-12.071688652038574,11.773136138916016
1716758406826057000,11.763056884765625,10.702528953552246,-10.903042793273926,12.839634895324707
1716758406836188700,11.773188720703125,11.315053939819336,-9.760473251342773,14.256362915039062
1716758406846320600,11.783320556640625,11.13236141204834,-8.782690048217773,15.188217163085938
1716758406856452400,11.793452392578125,9.89565372467041,-7.839456558227539,15.573930740356445
1716758406866584300,11.803584228515625,8.114659309387207,-7.165602207183838,15.790096282958984
1716758406876716000,11.813716064453125,6.722843170166016,-6.440044403076172,15.489763259887695
1716758406886848000,11.823847900390625,6.033683776855469,-6.118215084075928,14.363988876342773
1716758406896979700,11.833979736328125,6.718441009521484,-5.6311564445495605,12.571085929870605
1716758406907111700,11.844111572265625,7.831338405609131,-4.88981294631958,11.131715774536133
1716758406917243400,11.854243408203125,8.77100944519043,-4.4131011962890625,10.254531860351562
1716758406927375400,11.864375244140625,8.820999145507812,-4.136833190917969,9.209365844726562
1716758406937507000,11.874507080078125,7.371049880981445,-3.9470276832580566,7.675119876861572
1716758406947639000,11.88463916015625,5.43058967590332,-3.804581642150879,6.129262924194336
1716758406957770800,11.894770751953125,3.305610179901123,-3.465674877166748,4.6116156578063965
1716758406967902700,11.90490283203125,3.4878289699554443,-2.9798669815063477,2.8679447174072266
1716758406978034400,11.915034423828125,5.360302925109863,-2.386782646179199,1.6114110946655273
1716758406988166400,11.92516650390625,7.414851665496826,-1.969773769378662,1.0444574356079102
1716758406998298000,11.935298095703125,8.478582382202148,-1.823000431060791,0.6120338439941406
1716758407008430000,11.94543017578125,8.462540626525879,-0.8052287101745605,0.8095226287841797
1716758407018561800,11.955561767578125,6.873935222625732,0.2371373176574707,2.5003433227539062
1716758407028693800,11.96569384765625,4.230000972747803,1.2884249687194824,3.975275993347168
1716758407038825500,11.975825439453125,3.5224413871765137,2.214200973510742,4.069250583648682
1716758407048957200,11.985957275390625,4.316884994506836,3.529252052307129,3.9324326515197754
1716758407059089200,11.996089111328125,4.849236011505127,5.153868198394775,4.294933319091797
1716758407069220900,12.006220947265625,3.8489818572998047,6.6258087158203125,5.453820705413818
1716758407079352800,12.016352783203125,1.6887290477752686,7.539041996002197,7.009157180786133
1716758407089484500,12.026484619140625,-1.600089430809021,8.047971725463867,7.674123287200928
1716758407099616500,12.036616455078125,-5.563816070556641,8.406387329101562,7.6414642333984375
1716758407109748200,12.046748291015625,-7.305410385131836,9.336183547973633,7.156810760498047
1716758407119880200,12.056880126953125,-6.699922561645508,11.665780067443848,7.84879207611084
1716758407130012000,12.067011962890625,-3.974090337753296,14.129011154174805,11.065802574157715
1716758407140143900,12.077143798828125,-0.7622649669647217,15.118099212646484,14.619359970092773
1716758407150275600,12.087275634765625,2.2430403232574463,15.366122245788574,15.414433479309082
1716758407160407600,12.097407470703125,6.720502853393555,16.2570858001709,14.198232650756836
1716758407170539300,12.107539306640625,9.86790943145752,17.968862533569336,13.047355651855469
1716758407180671200,12.117671142578125,8.77761173248291,19.329345703125,14.263157844543457
1716758407190803000,12.127802978515625,4.528041362762451,19.98192596435547,16.62897491455078
1716758407200935000,12.137934814453125,3.113140344619751,20.84642791748047,18.961984634399414
1716758407211066600,12.148066650390625,4.056539535522461,21.297786712646484,21.370262145996094
1716758407221198600,12.158198486328125,5.314569473266602,21.04139518737793,23.083337783813477
1716758407231330300,12.168330322265625,5.584878921508789,20.07858657836914,23.90535545349121
1716758407241462300,12.178462158203125,4.3285675048828125,18.957340240478516,23.744678497314453
1716758407251594000,12.188593994140625,3.3815648555755615,17.954540252685547,23.18594741821289
1716758407261726000,12.198725830078125,3.1360044479370117,16.655780792236328,23.151092529296875
1716758407271857700,12.208857666015625,3.5533831119537354,15.863142013549805,22.786205291748047
1716758407281989600,12.21898974609375,4.0491042137146,15.3238525390625,23.38085174560547
1716758407292121300,12.229121337890625,3.9477322101593018,14.241384506225586,24.347505569458008
1716758407302253300,12.23925341796875,3.226531982421875,12.730829238891602,23.709007263183594
1716758407312385000,12.249385009765625,3.306265115737915,11.460958480834961,22.416629791259766
1716758407322517000,12.25951708984375,3.409048557281494,10.0128812789917,21.41301155090332
1716758407332648700,12.269648681640625,5.1829729080200195,8.417793273925781,20.667827606201172
1716758407342780700,12.27978076171875,7.260992050170898,6.698418140411377,20.003162384033203
1716758407352912400,12.289912353515625,9.559343338012695,4.249911785125732,18.929691314697266
1716758407363044000,12.300044189453125,11.196219444274902,1.9891853332519531,16.440086364746094
1716758407373176000,12.310176025390625,12.150693893432617,0.14522552490234375,13.625724792480469
1716758407383307800,12.320307861328125,12.121478080749512,-1.2183008193969727,11.51140308380127
1716758407393439700,12.330439697265625,12.580950736999512,-2.441035270690918,10.331480979919434
1716758407403571500,12.340571533203125,13.921311378479004,-3.959792137145996,9.298748016357422
1716758407413703400,12.350703369140625,15.43759536743164,-5.767826080322266,7.994139194488525
1716758407423835100,12.360835205078125,16.377172470092773,-7.876436233520508,5.875112533569336
1716758407433967000,12.370967041015625,15.711769104003906,-9.357381820678711,3.040745735168457
1716758407444098800,12.381098876953125,14.781322479248047,-10.415446281433105,0.4840402603149414
1716758407454230800,12.391230712890625,13.37103271484375,-10.863937377929688,-0.7303133010864258
1716758407464362500,12.401362548828125,11.312962532043457,-10.991680145263672,-0.542515754699707
1716758407474494500,12.411494384765625,9.350408554077148,-11.205146789550781,0.37931013107299805
1716758407484626200,12.421626220703125,8.284801483154297,-11.472021102905273,1.3914921283721924
1716758407494758100,12.431758056640625,7.833861351013184,-11.912528991699219,1.8278782367706299
1716758407504889900,12.441889892578125,7.7154645919799805,-12.319244384765625,1.5839693546295166
1716758407515021800,12.452021728515625,7.421137809753418,-12.047353744506836,1.505347490310669
1716758407525153500,12.462153564453125,6.387436866760254,-11.81108570098877,2.3725762367248535
1716758407535285500,12.472285400390625,5.798584461212158,-11.626367568969727,3.1460647583007812
1716758407545417200,12.482417236328125,6.627115249633789,-11.870243072509766,3.5078964233398438
1716758407555549200,12.492549072265625,7.799253940582275,-12.230452537536621,3.4162697792053223
1716758407565681000,12.502680908203125,8.213776588439941,-12.359084129333496,3.001030921936035
1716758407575812900,12.512812744140625,8.064489364624023,-12.395947456359863,2.838085174560547
1716758407585944600,12.522944580078125,8.05087661743164,-12.475027084350586,2.534855842590332
1716758407596076500,12.53307666015625,7.882493495941162,-12.521385192871094,2.4158775806427
1716758407606208300,12.543208251953125,7.487431049346924,-12.293859481811523,3.2811520099639893
1716758407616340200,12.55334033203125,7.138080596923828,-11.43549633026123,3.6019270420074463
1716758407626472000,12.563471923828125,6.8849945068359375,-10.439535140991211,5.824311256408691
1716758407636604000,12.57360400390625,6.299864768981934,-10.474292755126953,8.134859085083008
1716758407646735600,12.583735595703125,6.1471076011657715,-11.081722259521484,8.889841079711914
1716758407656867600,12.59386767578125,7.065204620361328,-11.985769271850586,8.820470809936523
1716758407666999300,12.603999267578125,8.053555488586426,-12.805370330810547,8.156643867492676
1716758407677131000,12.614131103515625,8.811297416687012,-12.931191444396973,7.643868446350098
1716758407687263000,12.624262939453125,9.194162368774414,-12.725993156433105,7.778781890869141
1716758407697394700,12.634394775390625,8.694585800170898,-12.172130584716797,8.466907501220703
1716758407707526700,12.644526611328125,7.158987522125244,-11.359785079956055,9.396446228027344
1716758407717658400,12.654658447265625,5.744537830352783,-10.805649757385254,10.730022430419922
1716758407727790300,12.664790283203125,4.451793193817139,-10.22797966003418,12.086907386779785
1716758407737922000,12.674922119140625,4.148409366607666,-10.269346237182617,12.067414283752441
1716758407748054000,12.685053955078125,3.316690444946289,-10.562518119812012,10.551614761352539
1716758407758185700,12.695185791015625,1.4105710983276367,-11.19083023071289,4.35597038269043
1716758407768317700,12.705317626953125,-0.4612159729003906,-11.894649505615234,1.4308581352233887
1716758407778449400,12.715449462890625,-2.338642120361328,-12.685432434082031,-0.8887567520141602
1716758407788581400,12.725581298828125,-4.441577911376953,-13.232772827148438,-2.890127182006836
1716758407798713000,12.735713134765625,-5.880211353302002,-13.448492050170898,-4.948754787445068
1716758407808845000,12.745844970703125,-6.632917404174805,-13.917264938354492,-7.145098686218262
1716758407818976800,12.755976806640625,-6.834970474243164,-14.353222846984863,-9.920164108276367
1716758407829108700,12.766108642578125,-7.134535312652588,-15.043651580810547,-13.457310676574707
1716758407839240400,12.776240478515625,-7.639007568359375,-15.39810848236084,-17.033226013183594
1716758407849372400,12.786372314453125,-9.140113830566406,-15.33640193939209,-19.966720581054688
1716758407859504000,12.796504150390625,-11.556783676147461,-15.107919692993164,-22.132946014404297
1716758407869636000,12.806635986328125,-14.373791694641113,-14.783599853515625,-22.95826530456543
1716758407879767800,12.816767822265625,-15.901237487792969,-14.323458671569824,-21.77147674560547
1716758407889899800,12.826899658203125,-15.783660888671875,-13.571022987365723,-18.994714736938477
1716758407900031500,12.837031494140625,-14.900705337524414,-12.448936462402344,-14.908529281616211
1716758407910163500,12.84716357421875,-14.300268173217773,-11.436212539672852,-10.566061019897461
1716758407920295200,12.857295166015625,-13.709121704101562,-10.70989990234375,-7.007781982421875
1716758407930427100,12.86742724609375,-12.491214752197266,-10.250744819641113,-4.543804168701172
1716758407940558800,12.877558837890625,-10.32247543334961,-10.165526390075684,-2.5575718879699707
1716758407950690800,12.88769091796875,-7.500611782073975,-10.33775520324707,-1.052682876586914
1716758407960822500,12.897822509765625,-4.582118511199951,-10.816390991210938,-0.3716559410095215
1716758407970954500,12.90795458984375,-2.0765562057495117,-11.478742599487305,-0.750556468963623
1716758407981086200,12.918086181640625,-0.20792245864868164,-12.50239086151123,-1.9695701599121094
1716758407991218000,12.928218017578125,1.044816017150879,-13.522218704223633,-2.9364442825317383
1716758408001350000,12.938349853515625,2.4063215255737305,-14.134355545043945,-2.5588812828063965
1716758408011481600,12.948481689453125,3.809278964996338,-14.131407737731934,-1.0148365497589111
1716758408021613600,12.958613525390625,4.533288955688477,-13.46430778503418,1.1269869804382324
1716758408031745300,12.968745361328125,6.1611409187316895,-12.582924842834473,2.958327293395996
1716758408041877200,12.978877197265625,7.764797687530518,-12.421402931213379,4.025356292724609
1716758408052009000,12.989009033203125,9.136877059936523,-12.343316078186035,4.593674659729004
1716758408062141000,12.999140869140625,9.331583023071289,-12.774330139160156,4.253645420074463
1716758408072272600,13.009272705078125,9.439434051513672,-13.07530403137207,4.831141471862793
1716758408082404600,13.019404541015625,10.239726066589355,-12.501041412353516,6.266933441162109
1716758408092536300,13.029536376953125,11.173391342163086,-11.730351448059082,8.914606094360352
1716758408102668300,13.039668212890625,12.442097663879395,-11.142730712890625,11.171731948852539
1716758408112800000,13.049800048828125,13.510910034179688,-10.536497116088867,12.276814460754395
1716758408122932000,13.059931884765625,12.94494342803955,-10.174686431884766,12.002705574035645
1716758408133063700,13.070063720703125,12.897523880004883,-9.76884651184082,11.514925956726074
1716758408143195600,13.080195556640625,12.962494850158691,-9.592034339904785,11.563787460327148
1716758408153327400,13.090327392578125,13.54686450958252,-9.445391654968262,11.452054977416992
