time,seconds_elapsed,z,y,x
1716758395418948600,0.355948486328125,0.2758026123046875,0.32257080078125,0.09979248046875
1716758395429019400,0.366019287109375,0.286468505859375,0.3257598876953125,0.037994384765625
1716758395439090200,0.376090087890625,0.2672882080078125,0.2245635986328125,-0.0323028564453125
1716758395449161000,0.386160888671875,0.206573486328125,0.128692626953125,-0.082366943359375
1716758395459231700,0.396231689453125,0.1533050537109375,0.083953857421875,-0.098358154296875
1716758395469302500,0.406302490234375,0.1522369384765625,0.0764923095703125,-0.0898284912109375
1716758395479373300,0.416373291015625,0.1554412841796875,0.0637054443359375,-0.0450897216796875
1716758395489444400,0.4264443359375,0.101104736328125,0.0306854248046875,0.05291748046875
1716758395499545600,0.436545654296875,0.0041656494140625,0.0093841552734375,0.15411376953125
1716758395509616400,0.446616455078125,-0.0629425048828125,0.1222991943359375,0.1828765869140625
1716758395519717600,0.456717529296875,-0.0224609375,0.2128448486328125,0.1253509521484375
1716758395529788400,0.466788330078125,0.0744781494140625,0.08502197265625,0.0795440673828125
1716758395539890000,0.476889892578125,0.0755462646484375,0.187286376953125,-0.016326904296875
1716758395549991200,0.4869912109375,0.0829925537109375,0.24267578125,-0.1484222412109375
1716758395560092400,0.497092529296875,0.1202850341796875,0.1883544921875,-0.2176666259765625
1716758395570193700,0.507193603515625,0.13519287109375,0.154266357421875,-0.2070159912109375
1716758395580295200,0.517295166015625,0.1373291015625,0.130828857421875,-0.1612091064453125
1716758395590396400,0.527396484375,0.1373291015625,0.0679779052734375,-0.1121978759765625
1716758395600497700,0.53749755859375,0.1138916015625,0.0211029052734375,-0.0813140869140625
1716758395610599000,0.547598876953125,0.0744781494140625,-0.02044677734375,-0.0504150390625
1716758395620700400,0.557700439453125,0.0414581298828125,-0.110992431640625,0.0007171630859375
1716758395630801700,0.5678017578125,0.0478363037109375,-0.21539306640625,0.0710296630859375
1716758395640903000,0.57790283203125,0.0510406494140625,-0.317657470703125,0.1732940673828125
1716758395651004400,0.58800439453125,0.023345947265625,-0.4486846923828125,0.3181610107421875
1716758395661136100,0.59813623046875,-0.033111572265625,-0.6191253662109375,0.5120391845703125
1716758395671237400,0.6082373046875,-0.0427093505859375,-1.0430908203125,0.8657073974609375
1716758395681339000,0.6183388671875,-0.1321868896484375,-1.203948974609375,1.2279052734375
1716758395691470600,0.628470703125,-0.3462982177734375,-0.804473876953125,1.149078369140625
1716758395701571800,0.63857177734375,-0.4389801025390625,-0.5615997314453125,0.8923492431640625
1716758395711703800,0.648703857421875,-0.37933349609375,-0.38262939453125,0.6878204345703125
1716758395721805000,0.65880517578125,-0.307952880859375,-0.259063720703125,0.554656982421875
1716758395731937000,0.66893701171875,-0.2685394287109375,-0.2292327880859375,0.464111328125
1716758395742038300,0.679038330078125,-0.2717437744140625,-0.2281646728515625,0.3756866455078125
1716758395752170000,0.689169921875,-0.2642822265625,-0.2196502685546875,0.3064422607421875
1716758395762271500,0.699271484375,-0.2344512939453125,-0.144012451171875,0.24359130859375
1716758395772403200,0.7094033203125,-0.1886444091796875,-0.0140533447265625,0.145599365234375
1716758395782535200,0.71953515625,-0.1630859375,0.1105804443359375,0.004974365234375
1716758395792636400,0.729636474609375,-0.1513671875,0.2394866943359375,-0.1239166259765625
1716758395802768100,0.73976806640625,-0.1439056396484375,0.2490692138671875,-0.1825103759765625
1716758395812900000,0.749900146484375,-0.1534881591796875,0.2043304443359375,-0.1718597412109375
1716758395823001300,0.76000146484375,-0.1673431396484375,0.1212310791015625,-0.1228485107421875
1716758395833133300,0.77013330078125,-0.1321868896484375,-0.052398681640625,-0.0355072021484375
1716758395843265000,0.78026513671875,-0.2291259765625,-0.0119171142578125,0.049713134765625
1716758395853397000,0.79039697265625,-0.321807861328125,-0.05133056640625,0.131744384765625
1716758395863498200,0.800498291015625,-0.3580169677734375,-0.2057952880859375,0.23614501953125
1716758395873630000,0.8106298828125,-0.368682861328125,-0.3570709228515625,0.36077880859375
1716758395883762000,0.820761962890625,-0.3345947265625,-0.455078125,0.4705047607421875
1716758395893893600,0.8308935546875,-0.2760009765625,-0.5168609619140625,0.5503997802734375
1716758395903995100,0.8409951171875,-0.2323150634765625,-0.5147247314453125,0.5930023193359375
1716758395914126800,0.851126953125,-0.1939697265625,-0.4508056640625,0.5844879150390625
1716758395924258800,0.8612587890625,-0.14923095703125,-0.34747314453125,0.5226898193359375
1716758395934390500,0.871390625,-0.113006591796875,-0.1962127685546875,0.4012603759765625
1716758395944522200,0.881522216796875,-0.07147216796875,-0.077972412109375,0.2489166259765625
1716758395954654200,0.891654296875,-0.02459716796875,-0.018310546875,0.1125640869140625
1716758395964755500,0.90175537109375,0.0244140625,0.0445404052734375,0.0209503173828125
1716758395974887400,0.911887451171875,0.0670166015625,0.15106201171875,-0.0312347412109375
1716758395985019100,0.92201904296875,0.08831787109375,0.058380126953125,-0.0578765869140625
1716758395995151000,0.932151123046875,0.0840606689453125,-0.00872802734375,-0.0205841064453125
1716758396005282800,0.94228271484375,0.07659912109375,-0.040679931640625,0.0593109130859375
1716758396015414800,0.952414794921875,0.087249755859375,-0.1184539794921875,0.1370697021484375
1716758396025546500,0.96254638671875,0.0829925537109375,-0.181304931640625,0.211639404296875
1716758396035647700,0.972647705078125,0.0521087646484375,-0.256927490234375,0.2627716064453125
1716758396045779700,0.98277978515625,0.009490966796875,-0.2846221923828125,0.2808837890625
1716758396055911400,0.992911376953125,-0.025665283203125,-0.2292327880859375,0.27130126953125
1716758396066043400,1.00304345703125,-0.056549072265625,-0.10992431640625,0.22442626953125
1716758396076175000,1.013175048828125,-0.068267822265625,0.039215087890625,0.143463134765625
1716758396086307000,1.02330712890625,-0.0618743896484375,0.1574554443359375,0.0390625
1716758396096438800,1.033438720703125,-0.049102783203125,0.28955078125,-0.037628173828125
1716758396106570800,1.04357080078125,-0.035247802734375,0.3950042724609375,-0.0695953369140625
1716758396116702500,1.053702392578125,-0.0192718505859375,0.4876861572265625,-0.082366943359375
1716758396126834400,1.06383447265625,-0.0288543701171875,0.5121917724609375,-0.11859130859375
1716758396136966100,1.073966064453125,-0.07147216796875,0.52923583984375,-0.1260528564453125
1716758396147098000,1.08409814453125,-0.035247802734375,0.33428955078125,-0.0898284912109375
1716758396157229800,1.094229736328125,-0.0086212158203125,0.09246826171875,-0.0099334716796875
1716758396167361800,1.10436181640625,-0.0160675048828125,-0.0598602294921875,0.0901947021484375
1716758396177463000,1.114463134765625,-0.0437774658203125,-0.1940765380859375,0.1157684326171875
1716758396187594800,1.1245947265625,-0.058685302734375,-0.235626220703125,0.096588134765625
1716758396197726700,1.134726806640625,-0.05975341796875,-0.226043701171875,0.0806121826171875
1716758396207858400,1.1448583984375,-0.079986572265625,-0.1844940185546875,0.07208251953125
1716758396217990400,1.154990478515625,-0.113006591796875,-0.113128662109375,0.0699615478515625
1716758396228122000,1.1651220703125,-0.1204681396484375,-0.0108642578125,0.08380126953125
1716758396238254000,1.175254150390625,-0.10235595703125,0.0946044921875,0.09765625
1716758396248385800,1.1853857421875,-0.0885162353515625,0.2117767333984375,0.0688934326171875
1716758396258517800,1.195517822265625,-0.0810546875,0.2362823486328125,0.0262908935546875
1716758396268649500,1.2056494140625,-0.0767974853515625,0.060516357421875,0.015625
1716758396278781400,1.215781494140625,-0.0267333984375,-0.1962127685546875,0.096588134765625
1716758396288913200,1.2259130859375,-0.0096893310546875,-0.3996734619140625,0.23187255859375
1716758396299045000,1.236045166015625,-0.0203399658203125,-0.4252471923828125,0.381011962890625
1716758396309176800,1.2461767578125,-0.0299224853515625,-0.4018096923828125,0.4481353759765625
1716758396319308800,1.256308837890625,-0.0544281005859375,-0.4369659423828125,0.439605712890625
1716758396329440500,1.2664404296875,-0.0767974853515625,-0.466796875,0.430023193359375
1716758396339572500,1.276572509765625,-0.06719970703125,-0.4785003662109375,0.4364166259765625
1716758396349704200,1.2867041015625,-0.0267333984375,-0.4785003662109375,0.4555816650390625
1716758396359836200,1.296836181640625,0.0169525146484375,-0.46466064453125,0.4481353759765625
1716758396369967900,1.3069677734375,0.06488037109375,-0.3911590576171875,0.3778228759765625
1716758396380099800,1.317099853515625,0.10430908203125,-0.249481201171875,0.2862091064453125
1716758396390231600,1.3272314453125,0.1138916015625,-0.0034027099609375,0.2158966064453125
1716758396400363500,1.337363525390625,0.06488037109375,0.161712646484375,0.18927001953125
1716758396410495200,1.3474951171875,0.0009765625,0.0946044921875,0.2404022216796875
1716758396420627200,1.357627197265625,-0.0512237548828125,-0.033233642578125,0.3565216064453125
1716758396430759000,1.367759033203125,-0.11407470703125,-0.13336181640625,0.464111328125
1716758396440891000,1.377890869140625,-0.1779937744140625,-0.1663818359375,0.5163116455078125
1716758396451022600,1.388022705078125,-0.2291259765625,-0.146148681640625,0.5003204345703125
1716758396461154600,1.398154541015625,-0.2259368896484375,-0.1365509033203125,0.4097747802734375
1716758396471286300,1.408286376953125,-0.1875762939453125,-0.0385589599609375,0.291534423828125
1716758396481418200,1.418418212890625,-0.09063720703125,0.0764923095703125,0.2105712890625
1716758396491550000,1.428550048828125,0.021209716796875,0.161712646484375,0.164764404296875
1716758396501681700,1.438681640625,0.10430908203125,0.3172454833984375,0.1242828369140625
1716758396511813600,1.448813720703125,0.17034912109375,0.4184417724609375,0.0465240478515625
1716758396521945300,1.4589453125,0.171417236328125,0.45892333984375,-0.0344390869140625
1716758396532077300,1.469077392578125,0.1287994384765625,0.49407958984375,-0.0695953369140625
1716758396542209000,1.479208984375,0.04571533203125,0.5089874267578125,-0.0578765869140625
1716758396552341000,1.489341064453125,0.0030975341796875,0.446136474609375,-0.051483154296875
1716758396562472700,1.49947265625,-0.0203399658203125,0.278900146484375,-0.070648193359375
1716758396572604700,1.509604736328125,-0.07147216796875,0.0562591552734375,-0.04083251953125
1716758396582736400,1.519736328125,-0.1194000244140625,-0.0928802490234375,0.0230865478515625
1716758396592868400,1.529868408203125,-0.128997802734375,-0.22283935546875,0.06463623046875
1716758396603000000,1.54,-0.117279052734375,-0.38262939453125,0.089141845703125
1716758396613132000,1.550132080078125,-0.0991668701171875,-0.553070068359375,0.141326904296875
1716758396623263700,1.560263671875,-0.148162841796875,-0.7703857421875,0.1850128173828125
1716758396633395700,1.570395751953125,-0.2483062744140625,-0.93231201171875,0.157318115234375
1716758396643527400,1.58052734375,-0.228057861328125,-1.03564453125,0.0688934326171875
1716758396653659400,1.590659423828125,-0.1087493896484375,-1.1634674072265625,-0.0269775390625
1716758396663791000,1.600791015625,-0.0533599853515625,-1.2114105224609375,-0.07171630859375
1716758396673923000,1.610923095703125,-0.0341796875,-1.264678955078125,-0.1090087890625
1716758396684054800,1.6210546875,-0.1279296875,-1.3115386962890625,-0.1494903564453125
1716758396694186800,1.631186767578125,-0.43365478515625,-1.2689361572265625,-0.1260528564453125
1716758396704318500,1.641318359375,-0.7021026611328125,-1.332855224609375,-0.24322509765625
1716758396714450400,1.651450439453125,-0.8874664306640625,-1.252960205078125,-0.4328460693359375
1716758396724582100,1.66158203125,-0.8874664306640625,-1.173065185546875,-0.561737060546875
1716758396734714000,1.671714111328125,-0.74365234375,-1.1400299072265625,-0.52764892578125
1716758396744845800,1.681845703125,-0.6680145263671875,-1.2241973876953125,-0.3966217041015625
1716758396754977800,1.691977783203125,-0.7724151611328125,-1.331787109375,-0.3050079345703125
1716758396765109500,1.702109619140625,-1.005706787109375,-1.2902374267578125,-0.3177947998046875
1716758396775241500,1.712241455078125,-1.301849365234375,-1.264678955078125,-0.390228271484375
1716758396785373200,1.722373291015625,-1.600128173828125,-1.5277862548828125,-0.439239501953125
1716758396795505200,1.732505126953125,-1.8568572998046875,-2.0348663330078125,-0.413665771484375
1716758396805636900,1.742636962890625,-2.0294189453125,-2.6047821044921875,-0.3050079345703125
1716758396815768600,1.7527685546875,-2.0762939453125,-3.0266265869140625,-0.175048828125
1716758396825900500,1.762900634765625,-2.03369140625,-3.203460693359375,-0.189971923828125
1716758396836032300,1.7730322265625,-1.9474029541015625,-3.2300872802734375,-0.4658660888671875
1716758396846164200,1.783164306640625,-1.91864013671875,-3.2396697998046875,-0.9122161865234375
1716758396856296000,1.7932958984375,-1.971893310546875,-3.3653717041015625,-1.3212738037109375
1716758396866428000,1.803427978515625,-2.0059814453125,-3.63275146484375,-1.5300750732421875
1716758396876559600,1.8135595703125,-2.018768310546875,-3.9022674560546875,-1.5407257080078125
1716758396886691600,1.823691650390625,-1.9921417236328125,-4.13555908203125,-1.428863525390625
1716758396896823300,1.8338232421875,-1.90692138671875,-4.3241119384765625,-1.386260986328125
1716758396906955300,1.843955322265625,-1.7631072998046875,-4.399749755859375,-1.53326416015625
1716758396917087000,1.8540869140625,-1.576690673828125,-4.4402313232421875,-1.9721527099609375
1716758396927219000,1.864218994140625,-1.41583251953125,-4.3688507080078125,-2.6933441162109375
1716758396937350700,1.8743505859375,-1.1942596435546875,-4.183502197265625,-3.459259033203125
1716758396947482600,1.884482666015625,-0.8501739501953125,-4.0279693603515625,-4.112274169921875
1716758396957614300,1.8946142578125,-0.51568603515625,-3.98748779296875,-4.552215576171875
1716758396967746300,1.904746337890625,-0.4293975830078125,-3.8436737060546875,-4.690704345703125
1716758396977878000,1.9148779296875,-0.68719482421875,-3.520904541015625,-4.6097412109375
1716758396988010000,1.925010009765625,-1.25604248046875,-2.99359130859375,-4.373260498046875
1716758396998141700,1.9351416015625,-1.976165771484375,-2.322479248046875,-3.91839599609375
1716758397008273700,1.945273681640625,-2.603607177734375,-1.6811981201171875,-3.2270355224609375
1716758397018405400,1.9554052734375,-2.9647216796875,-1.196502685546875,-2.365234375
1716758397028537300,1.965537353515625,-3.0073394775390625,-1.1432342529296875,-1.418212890625
1716758397038669000,1.9756689453125,-2.8582000732421875,-1.464935302734375,-0.5138092041015625
1716758397048801000,1.985801025390625,-2.71759033203125,-1.925140380859375,0.09765625
1716758397058932700,1.9959326171875,-2.690948486328125,-2.2351226806640625,0.301116943359375
1716758397069064700,2.006064697265625,-2.7921600341796875,-2.108367919921875,0.1796875
1716758397079196400,2.016196533203125,-2.9817657470703125,-1.6130218505859375,-0.0887603759765625
1716758397089328400,2.026328369140625,-3.17138671875,-1.14642333984375,-0.176116943359375
1716758397099460000,2.036460205078125,-3.2821807861328125,-0.888641357421875,0.1360015869140625
1716758397109592000,2.046592041015625,-3.3354339599609375,-0.9152679443359375,0.6824798583984375
1716758397119723800,2.056723876953125,-3.353546142578125,-1.157073974609375,1.205535888671875
1716758397129855500,2.06685546875,-3.4739227294921875,-1.6311187744140625,1.730712890625
1716758397139987500,2.076987548828125,-3.7828521728515625,-2.7059783935546875,2.56268310546875
1716758397150119200,2.087119140625,-4.3197479248046875,-4.2559356689453125,3.8804168701171875
1716758397160251100,2.097251220703125,-4.8822021484375,-5.4000244140625,5.2460784912109375
1716758397170382800,2.1073828125,-5.2305450439453125,-5.2807159423828125,5.935302734375
1716758397180514800,2.117514892578125,-5.3104400634765625,-3.795745849609375,5.59442138671875
1716758397190646500,2.127646484375,-5.249725341796875,-1.7472381591796875,4.5376739501953125
1716758397200778500,2.137778564453125,-5.16448974609375,-0.543487548828125,3.795196533203125
1716758397210910200,2.14791015625,-5.212432861328125,-0.863067626953125,3.9400634765625
1716758397221042200,2.158042236328125,-5.477691650390625,-2.164825439453125,4.737945556640625
1716758397231174000,2.168173828125,-5.88568115234375,-3.3557891845703125,5.62744140625
1716758397241305900,2.178305908203125,-6.3160400390625,-3.678558349609375,5.99603271484375
1716758397251437600,2.1884375,-6.5876922607421875,-3.2535247802734375,5.776580810546875
1716758397261569500,2.198569580078125,-6.6068572998046875,-2.6005096435546875,5.1800384521484375
1716758397271701200,2.208701171875,-6.389556884765625,-2.108367919921875,4.455657958984375
1716758397281833200,2.218833251953125,-5.974090576171875,-1.9986419677734375,3.88360595703125
1716758397291965000,2.22896484375,-5.518157958984375,-2.24365234375,3.5139617919921875
1716758397302097000,2.239096923828125,-5.1069793701171875,-2.68572998046875,3.360565185546875
1716758397312228600,2.249228515625,-4.8054962158203125,-3.202392578125,3.38079833984375
1716758397322360600,2.259360595703125,-4.700042724609375,-3.553924560546875,3.4063720703125
1716758397332492300,2.2694921875,-4.7618255615234375,-3.51983642578125,3.29132080078125
1716758397342624300,2.279624267578125,-4.85662841796875,-3.236480712890625,2.985595703125
1716758397352756000,2.289755859375,-4.86834716796875,-2.959503173828125,2.5999603271484375
1716758397362888000,2.299887939453125,-4.686187744140625,-2.7507171630859375,2.239898681640625
1716758397373019600,2.31001953125,-4.3655548095703125,-2.574951171875,1.8596038818359375
1716758397383151600,2.320151611328125,-4.014007568359375,-2.324615478515625,1.4281768798828125
1716758397393283300,2.330283447265625,-3.6688690185546875,-1.865478515625,0.996734619140625
1716758397403415300,2.340415283203125,-3.3471527099609375,-1.332855224609375,0.6590576171875
1716758397413547000,2.350547119140625,-3.0233154296875,-1.0068817138671875,0.3202972412109375
1716758397423679000,2.360678955078125,-2.7218475341796875,-0.860931396484375,0.0827484130859375
1716758397433810700,2.370810791015625,-2.281890869140625,-0.7224578857421875,0.0443878173828125
1716758397443942400,2.3809423828125,-1.7524566650390625,-0.4135284423828125,0.2158966064453125
1716758397454074400,2.391074462890625,-1.1793365478515625,0.0988616943359375,0.57916259765625
1716758397464206000,2.4012060546875,-0.584930419921875,0.5249786376953125,0.9029998779296875
1716758397474338000,2.411338134765625,0.046783447265625,0.6155242919921875,1.03509521484375
1716758397484469800,2.4214697265625,0.66143798828125,0.5473480224609375,1.0702362060546875
1716758397494601700,2.431601806640625,1.170623779296875,0.4759674072265625,1.2417449951171875
1716758397504733400,2.4417333984375,1.478485107421875,0.309783935546875,1.628448486328125
1716758397514865400,2.451865478515625,1.5924835205078125,0.1766357421875,2.0811767578125
1716758397524997000,2.4619970703125,1.56158447265625,0.1457366943359375,2.3592071533203125
1716758397535129000,2.472129150390625,1.492340087890625,0.1297607421875,2.35601806640625
1716758397545260800,2.4822607421875,1.5072479248046875,0.0551910400390625,2.1227264404296875
1716758397555392800,2.492392822265625,1.6116485595703125,-0.153594970703125,1.86279296875
1716758397565524500,2.5025244140625,1.699005126953125,-0.38262939453125,1.5954132080078125
1716758397575656400,2.512656494140625,1.6819610595703125,-0.4742431640625,1.1767730712890625
1716758397585788200,2.5227880859375,1.5903472900390625,-0.338958740234375,0.575958251953125
1716758397595920100,2.532920166015625,1.50299072265625,-0.0694427490234375,-0.0536041259765625
1716758397606051800,2.5430517578125,1.48382568359375,0.16278076171875,-0.61181640625
1716758397616183800,2.553183837890625,1.4870147705078125,0.3033905029296875,-0.9857177734375
1716758397626315500,2.5633154296875,1.481689453125,0.3289642333984375,-1.1764068603515625
1716758397636447500,2.573447509765625,1.5232391357421875,0.278900146484375,-1.318084716796875
1716758397646579200,2.5835791015625,1.5999298095703125,0.26611328125,-1.4341888427734375
1716758397656711200,2.593711181640625,1.685150146484375,0.3651885986328125,-1.600372314453125
1716758397666843000,2.6038427734375,1.75225830078125,0.5441436767578125,-1.797454833984375
1716758397676974800,2.613974853515625,1.77783203125,0.7369537353515625,-1.9327392578125
1716758397687106600,2.6241064453125,1.7852935791015625,0.894622802734375,-1.9828033447265625
1716758397697238500,2.634238525390625,1.8172454833984375,0.904205322265625,-1.8858642578125
1716758397707370200,2.644370361328125,1.870513916015625,0.6719818115234375,-1.5428466796875
1716758397717502200,2.654502197265625,2.0366973876953125,0.4099273681640625,-1.01129150390625
1716758397727634000,2.664634033203125,2.2689208984375,0.2352142333984375,-0.51593017578125
1716758397737766000,2.674765869140625,2.394622802734375,0.38861083984375,-0.220855712890625
1716758397747897600,2.684897705078125,2.3168487548828125,0.8434906005859375,-0.303955078125
1716758397758029600,2.695029541015625,2.062255859375,1.3995513916015625,-0.6597442626953125
1716758397768161300,2.705161376953125,1.8534698486328125,1.8352508544921875,-0.9484405517578125
1716758397778293000,2.71529296875,1.9088592529296875,1.8459014892578125,-1.0443115234375
1716758397788425000,2.725425048828125,2.289154052734375,1.4432220458984375,-0.8802490234375
1716758397798556700,2.735556640625,2.760009765625,0.86053466796875,-0.5446929931640625
1716758397808688600,2.745688720703125,3.2063446044921875,0.6634521484375,-0.2730560302734375
1716758397818820400,2.7558203125,3.546173095703125,0.88397216796875,-0.2506866455078125
1716758397828952300,2.765952392578125,3.6558990478515625,1.4315185546875,-0.4754486083984375
1716758397839084000,2.776083984375,3.6324615478515625,1.9598846435546875,-0.779052734375
1716758397849216000,2.786216064453125,3.63671875,2.11541748046875,-0.8216705322265625
1716758397859347700,2.79634765625,3.772003173828125,1.928985595703125,-0.60968017578125
1716758397869479700,2.806479736328125,4.038330078125,1.6743927001953125,-0.2879638671875
1716758397879611400,2.816611328125,4.216217041015625,1.395294189453125,-0.121795654296875
1716758397889743400,2.826743408203125,4.220489501953125,1.3867645263671875,-0.26666259765625
1716758397899875000,2.836875,4.230072021484375,1.5849151611328125,-0.5585479736328125
1716758397910007000,2.847007080078125,4.366424560546875,1.898101806640625,-1.0155487060546875
1716758397920138800,2.857138671875,4.6902618408203125,2.432861328125,-1.6536407470703125
1716758397930270700,2.867270751953125,5.0545806884765625,2.9005126953125,-2.3354034423828125
1716758397940402400,2.87740234375,5.3283538818359375,3.0304718017578125,-2.9734954833984375
1716758397950534400,2.887534423828125,5.5147857666015625,2.5958404541015625,-3.4230499267578125
1716758397960666000,2.897666015625,5.656463623046875,1.758544921875,-3.4890899658203125
1716758397970798000,2.907798095703125,5.7544708251953125,0.8978118896484375,-3.219573974609375
1716758397980929800,2.9179296875,5.7949371337890625,0.2021942138671875,-2.7114410400390625
1716758397991061800,2.928061767578125,5.7864227294921875,-0.270782470703125,-2.0989227294921875
1716758398001193500,2.938193359375,5.7725677490234375,-0.54241943359375,-1.6067657470703125
1716758398011325400,2.948325439453125,5.8801727294921875,-0.6617279052734375,-1.4246063232421875
1716758398021457200,2.95845703125,6.1070709228515625,-0.6308441162109375,-1.5045013427734375
1716758398031589000,2.968589111328125,6.31585693359375,-0.4358978271484375,-1.736724853515625
1716758398041720800,2.978720947265625,6.3776397705078125,-0.144012451171875,-2.009429931640625
1716758398051852800,2.988852783203125,6.2966766357421875,0.1894073486328125,-2.2011871337890625
1716758398061984500,2.998984619140625,6.119842529296875,0.4791717529296875,-2.208648681640625
1716758398072116500,3.009116455078125,5.9334259033203125,0.664520263671875,-1.9945220947265625
1716758398082248200,3.019248291015625,5.74700927734375,0.63043212890625,-1.6089019775390625
1716758398092380000,3.0293798828125,5.6010589599609375,0.40460205078125,-1.19024658203125
1716758398102511900,3.039511962890625,5.473236083984375,0.2149810791015625,-0.8525543212890625
1716758398112643600,3.0496435546875,5.287872314453125,0.18408203125,-0.7598876953125
1716758398122775600,3.059775634765625,5.1099853515625,0.413116455078125,-0.9889068603515625
1716758398132907300,3.0699072265625,4.946990966796875,0.767852783203125,-1.477874755859375
1716758398143039200,3.080039306640625,4.688140869140625,1.0330963134765625,-2.0158233642578125
1716758398153171000,3.0901708984375,4.354705810546875,1.17584228515625,-2.33221435546875
1716758398163303000,3.100302978515625,3.9509735107421875,1.268524169921875,-2.420623779296875
1716758398173434600,3.1104345703125,3.4247283935546875,1.3846435546875,-2.3386077880859375
1716758398183566600,3.120566650390625,2.83563232421875,1.5465545654296875,-2.1990509033203125
1716758398193698300,3.1306982421875,2.25506591796875,1.841644287109375,-2.092529296875
1716758398203830300,3.140830322265625,1.7256317138671875,2.180389404296875,-2.045654296875
1716758398213962000,3.1509619140625,1.3527984619140625,2.499969482421875,-2.05523681640625
1716758398224094000,3.161093994140625,1.118438720703125,2.7481842041015625,-2.0839996337890625
1716758398234225700,3.1712255859375,0.8350677490234375,3.0517730712890625,-2.1660308837890625
1716758398244357600,3.181357666015625,0.4057769775390625,3.4778900146484375,-2.408905029296875
1716758398254489300,3.1914892578125,-0.148162841796875,4.1202392578125,-2.8446044921875
1716758398264621300,3.201621337890625,-0.6573638916015625,5.1290435791015625,-3.5615234375
1716758398274753000,3.2117529296875,-0.84698486328125,6.5916595458984375,-4.1623382568359375
1716758398284885000,3.221885009765625,-0.9183502197265625,7.8678436279296875,-3.7617950439453125
1716758398295016700,3.2320166015625,-1.1686859130859375,7.632415771484375,-1.623809814453125
1716758398305148700,3.242148681640625,-1.4136962890625,5.8502349853515625,1.7019500732421875
1716758398315280400,3.2522802734375,-1.4989166259765625,3.8390045166015625,4.3672332763671875
1716758398325412400,3.262412353515625,-1.38067626953125,2.944183349609375,5.0170440673828125
1716758398335544000,3.2725439453125,-1.440338134765625,3.263763427734375,4.213836669921875
1716758398345676000,3.282676025390625,-1.8195648193359375,3.4342041015625,3.417022705078125
1716758398355807700,3.292807861328125,-2.4342193603515625,2.9495086669921875,3.413818359375
1716758398365939700,3.302939697265625,-3.012664794921875,2.1633453369140625,3.8697509765625
1716758398376071400,3.313071533203125,-3.397216796875,1.3409576416015625,4.1648406982421875
1716758398386203400,3.323203369140625,-3.6390380859375,0.457855224609375,4.4971923828125
1716758398396335000,3.333335205078125,-3.708282470703125,-0.4113922119140625,4.9627227783203125
1716758398406466800,3.343466796875,-3.7359771728515625,-0.9940948486328125,5.3973541259765625
1716758398416598800,3.353598876953125,-3.8488922119140625,-0.942962646484375,5.5432891845703125
1716758398426730500,3.36373046875,-4.09283447265625,-0.4976806640625,5.346221923828125
1716758398436862500,3.373862548828125,-4.286712646484375,-0.1259002685546875,5.12677001953125
1716758398446994200,3.383994140625,-4.29949951171875,-0.1152496337890625,5.22796630859375
1716758398457126100,3.394126220703125,-4.2036285400390625,-0.6031494140625,5.7499542236328125
1716758398467257900,3.4042578125,-4.0672760009765625,-1.4052886962890625,6.5435791015625
1716758398477389800,3.414389892578125,-3.9628753662109375,-2.3086395263671875,7.2786102294921875
1716758398487521500,3.424521484375,-3.8829803466796875,-2.928619384765625,7.727081298828125
1716758398497653500,3.434653564453125,-3.8169403076171875,-3.351531982421875,7.8687591552734375
1716758398507785200,3.44478515625,-3.807342529296875,-3.7052001953125,7.841064453125
1716758398517917200,3.454917236328125,-3.9053497314453125,-3.990692138671875,7.703643798828125
1716758398528049000,3.465048828125,-4.0289306640625,-3.9587249755859375,7.3382568359375
1716758398538180900,3.475180908203125,-3.9394378662109375,-3.666839599609375,6.881256103515625
1716758398548312600,3.4853125,-3.7817840576171875,-3.5475311279296875,6.5233306884765625
1716758398558444500,3.495444580078125,-3.698699951171875,-3.711578369140625,6.2250518798828125
1716758398568576300,3.505576171875,-3.604949951171875,-4.068450927734375,5.9076080322265625
1716758398578708200,3.515708251953125,-3.420654296875,-4.559539794921875,5.6082763671875
1716758398588840000,3.52583984375,-3.0946807861328125,-4.874847412109375,5.2237091064453125
1716758398598972000,3.535971923828125,-2.679229736328125,-4.5701904296875,4.7102508544921875
1716758398609103600,3.546103515625,-2.375640869140625,-3.8468780517578125,4.13714599609375
1716758398619235600,3.556235595703125,-2.40972900390625,-3.15765380859375,3.59918212890625
1716758398629367300,3.5663671875,-2.7346343994140625,-2.708099365234375,3.11981201171875
1716758398639499300,3.576499267578125,-3.1554107666015625,-2.5312652587890625,2.7501678466796875
1716758398649631000,3.586630859375,-3.456878662109375,-2.6015777587890625,2.61700439453125
1716758398659763000,3.596762939453125,-3.433441162109375,-3.0031890869140625,2.688385009765625
1716758398669894700,3.606894775390625,-3.080841064453125,-3.314239501953125,2.684112548828125
1716758398680026600,3.617026611328125,-2.6536712646484375,-3.061767578125,2.3869171142578125
1716758398690158300,3.627158447265625,-2.38201904296875,-2.343780517578125,1.8702545166015625
1716758398700290300,3.637290283203125,-2.3660430908203125,-1.378662109375,1.1416168212890625
1716758398710422000,3.647422119140625,-2.56951904296875,-0.487030029296875,0.2734222412109375
1716758398720554000,3.657553955078125,-2.8582000732421875,0.0946044921875,-0.460540771484375
1716758398730685700,3.667685791015625,-3.1191864013671875,0.2032623291015625,-0.931396484375
1716758398740817400,3.6778173828125,-3.238494873046875,-0.146148681640625,-0.96441650390625
1716758398750949400,3.687949462890625,-3.15966796875,-0.621246337890625,-0.5691986083984375
1716758398761081000,3.6980810546875,-2.9466094970703125,-0.806610107421875,-0.0333709716796875
1716758398771213000,3.708213134765625,-2.8145294189453125,-0.5850372314453125,0.2617034912109375
1716758398781344800,3.7183447265625,-2.7857666015625,-0.07476806640625,0.0710296630859375
1716758398791476700,3.728476806640625,-2.828369140625,0.52923583984375,-0.3518829345703125
1716758398801608400,3.7386083984375,-2.99029541015625,0.906341552734375,-0.6011505126953125
1716758398811740400,3.748740478515625,-3.18310546875,0.8115234375,-0.4094085693359375
1716758398821872000,3.7588720703125,-3.3034820556640625,0.4109954833984375,0.1498565673828125
1716758398832004000,3.769004150390625,-3.33331298828125,0.1659698486328125,0.7900848388671875
1716758398842135800,3.7791357421875,-3.15753173828125,0.2053985595703125,1.0052642822265625
1716758398852267800,3.789267822265625,-2.7772369384765625,0.377960205078125,0.6867523193359375
1716758398862399500,3.7993994140625,-2.2872161865234375,0.54095458984375,0.2840728759765625
1716758398872531500,3.809531494140625,-1.6128997802734375,0.3864898681640625,0.120025634765625
1716758398882663200,3.8196630859375,-0.7361907958984375,-0.019378662109375,0.14453125
1716758398892795100,3.829795166015625,0.1841888427734375,-0.40606689453125,0.1381378173828125
1716758398902926800,3.8399267578125,0.936279296875,-0.5829010009765625,0.02947998046875
1716758398913058800,3.850058837890625,1.334686279296875,-0.5839691162109375,-0.175048828125
1716758398923190500,3.8601904296875,1.447601318359375,-0.4923553466796875,-0.390228271484375
1716758398933322500,3.870322509765625,1.492340087890625,-0.381561279296875,-0.52764892578125
1716758398943454200,3.8804541015625,1.62017822265625,-0.3911590576171875,-0.550018310546875
1716758398953586200,3.890586181640625,1.8992767333984375,-0.520050048828125,-0.5031585693359375
1716758398963718000,3.9007177734375,2.2721099853515625,-0.65533447265625,-0.47119140625
1716758398973849900,3.910849853515625,2.613006591796875,-0.5679931640625,-0.4083404541015625
1716758398983981600,3.920981689453125,2.815399169921875,-0.2952880859375,-0.345489501953125
1716758398994113500,3.931113525390625,2.9379119873046875,-0.009796142578125,-0.3071441650390625
1716758399004245200,3.941245361328125,3.08917236328125,0.2927398681640625,-0.302886962890625
1716758399014377200,3.951377197265625,3.318206787109375,0.54095458984375,-0.310333251953125
1716758399024509000,3.961509033203125,3.6399078369140625,0.810455322265625,-0.2869110107421875
1716758399034641000,3.971640869140625,3.999969482421875,1.2493438720703125,-0.2261810302734375
1716758399044772600,3.981772705078125,4.37921142578125,1.701019287109375,-0.1707916259765625
1716758399054904300,3.991904296875,4.8021240234375,2.0163421630859375,-0.0898284912109375
1716758399065036300,4.002036376953125,5.243133544921875,2.1526947021484375,0.0337371826171875
1716758399075168000,4.01216796875,5.63409423828125,2.2432403564453125,0.1636962890625
1716758399085300000,4.022300048828125,6.086822509765625,2.3433837890625,0.1498565673828125
1716758399095431700,4.032431640625,6.6056060791015625,2.5319366455078125,0.037994384765625
1716758399105563600,4.042563720703125,7.0743255615234375,2.7705535888671875,-0.0557403564453125
1716758399115695400,4.0526953125,7.456756591796875,2.9420623779296875,-0.140960693359375
1716758399125827300,4.062827392578125,7.7582244873046875,3.1125030517578125,-0.2719879150390625
1716758399135959000,4.072958984375,7.9297332763671875,3.331939697265625,-0.4168701171875
1716758399146091000,4.083091064453125,8.01708984375,3.5567169189453125,-0.429656982421875
1716758399156222700,4.09322265625,8.117218017578125,3.776153564453125,-0.3401641845703125
1716758399166354700,4.103354736328125,7.9670257568359375,3.9796295166015625,-0.3082122802734375
1716758399176486400,4.113486328125,7.4077606201171875,4.0936126708984375,-0.2858428955078125
1716758399186618400,4.123618408203125,6.8144073486328125,4.245941162109375,-0.4211273193359375
1716758399196750000,4.13375,6.3925628662109375,4.5218505859375,-0.8227386474609375
1716758399206882000,4.143882080078125,6.1720428466796875,4.73809814453125,-1.347900390625
1716758399217013800,4.154013671875,6.0484771728515625,4.80413818359375,-1.77081298828125
1716758399227145700,4.164145751953125,5.9355621337890625,4.6518096923828125,-2.092529296875
1716758399237277400,4.17427734375,5.77789306640625,4.3791046142578125,-2.34393310546875
1716758399247409400,4.184409423828125,5.5243682861328125,4.004119873046875,-2.5537872314453125
1716758399257541000,4.194541015625,5.2527313232421875,3.4459228515625,-2.614501953125
1716758399267673000,4.204673095703125,5.129150390625,2.901580810546875,-2.4824066162109375
1716758399277804800,4.2148046875,5.07269287109375,2.6075592041015625,-2.3226318359375
1716758399287936800,4.224936767578125,4.9810791015625,2.4701385498046875,-2.218231201171875
1716758399298068500,4.235068359375,4.8063812255859375,2.4626922607421875,-2.1298065185546875
1716758399308200400,4.245200439453125,4.528350830078125,2.5873260498046875,-2.0413970947265625
1716758399318332200,4.255332275390625,4.1437835693359375,2.7566986083984375,-1.9838714599609375
1716758399328464100,4.265464111328125,3.727264404296875,2.9282073974609375,-1.987060546875
1716758399338595800,4.275595947265625,3.501434326171875,2.9356689453125,-1.990264892578125
1716758399348727800,4.285727783203125,3.56854248046875,2.53619384765625,-1.9465789794921875
1716758399358859500,4.295859619140625,3.727264404296875,1.9833221435546875,-1.7420501708984375
1716758399368991200,4.3059912109375,3.66015625,1.6072845458984375,-1.3660125732421875
1716758399379123200,4.316123291015625,3.16693115234375,1.7308502197265625,-0.873870849609375
1716758399389255000,4.3262548828125,2.2369537353515625,2.30609130859375,-0.5148773193359375
1716758399399387000,4.336386962890625,1.342132568359375,3.1146240234375,-0.5574798583984375
1716758399409518600,4.3465185546875,0.775421142578125,3.7889404296875,-0.9345855712890625
1716758399419650600,4.356650634765625,0.2566375732421875,4.300262451171875,-1.4949188232421875
1716758399429782300,4.3667822265625,-0.4656219482421875,4.6486053466796875,-1.9561767578125
1716758399439914200,4.376914306640625,-1.3156890869140625,4.5942840576171875,-2.1191558837890625
1716758399450046000,4.3870458984375,-1.9314117431640625,4.27789306640625,-1.900787353515625
1716758399460178000,4.397177978515625,-2.0933380126953125,4.166046142578125,-1.5662841796875
1716758399470309600,4.4073095703125,-2.09759521484375,4.1021270751953125,-1.3361968994140625
1716758399480441600,4.417441650390625,-2.1029205322265625,3.67816162109375,-1.0325927734375
1716758399490573300,4.4275732421875,-2.10931396484375,2.71728515625,-0.5255279541015625
1716758399500705300,4.437705322265625,-2.0507354736328125,1.73724365234375,0.3426666259765625
1716758399510837000,4.4478369140625,-1.9580535888671875,0.9595947265625,1.3876953125
1716758399520969000,4.457968994140625,-1.9676361083984375,0.528167724609375,2.2803802490234375
1716758399531100700,4.4681005859375,-2.1636505126953125,0.286346435546875,2.7054290771484375
1716758399541232600,4.478232666015625,-2.587615966796875,-0.0225677490234375,2.8748016357421875
1716758399551364400,4.4883642578125,-3.1063995361328125,-0.5509490966796875,3.019683837890625
1716758399561496300,4.498496337890625,-3.39935302734375,-1.2220611572265625,3.1602935791015625
1716758399571628000,4.5086279296875,-3.4824371337890625,-1.9624176025390625,3.268951416015625
1716758399581760000,4.518760009765625,-3.5538177490234375,-2.4524383544921875,3.3285980224609375
1716758399591891700,4.5288916015625,-3.7583465576171875,-2.411956787109375,3.1262054443359375
1716758399602023700,4.539023681640625,-3.9980316162109375,-2.2937164306640625,2.820465087890625
1716758399612155400,4.5491552734375,-4.2196044921875,-2.4641571044921875,2.664947509765625
1716758399622287400,4.559287353515625,-4.3644866943359375,-2.9797515869140625,2.7277984619140625
1716758399632419000,4.569419189453125,-4.43585205078125,-3.876708984375,3.0782623291015625
1716758399642551000,4.579551025390625,-4.4294586181640625,-4.87591552734375,3.6716156005859375
1716758399652682800,4.589682861328125,-4.3431854248046875,-5.3638153076171875,3.96563720703125
1716758399662814700,4.599814697265625,-4.1375885009765625,-5.2050933837890625,3.8878631591796875
1716758399672946400,4.609946533203125,-3.93731689453125,-4.7843017578125,3.8111724853515625
1716758399683078100,4.620078125,-3.7498321533203125,-4.26446533203125,3.8420562744140625
1716758399693210000,4.630210205078125,-3.6273193359375,-3.64447021484375,3.8580474853515625
1716758399703341800,4.640341796875,-3.5676727294921875,-3.2769622802734375,3.870819091796875
1716758399713473800,4.650473876953125,-3.526123046875,-3.267364501953125,3.9517822265625
1716758399723605500,4.66060546875,-3.595367431640625,-3.622100830078125,4.09771728515625
1716758399733737500,4.670737548828125,-3.86700439453125,-4.4061431884765625,4.291595458984375
1716758399743869200,4.680869140625,-4.164215087890625,-5.4703369140625,4.4364776611328125
1716758399754001200,4.691001220703125,-4.298431396484375,-6.2735443115234375,4.4716339111328125
1716758399764132900,4.7011328125,-4.3367919921875,-6.1382598876953125,4.159515380859375
1716758399774264800,4.711264892578125,-4.3389129638671875,-5.104949951171875,3.3754730224609375
1716758399784396500,4.721396484375,-4.3154754638671875,-3.7169189453125,2.4412384033203125
1716758399794528500,4.731528564453125,-4.2622222900390625,-2.621826171875,1.61566162109375
1716758399804660200,4.74166015625,-4.1844482421875,-2.15203857421875,1.0404205322265625
1716758399814792200,4.751792236328125,-4.083251953125,-2.254302978515625,0.768768310546875
1716758399824924000,4.761923828125,-3.9745941162109375,-2.679351806640625,0.770904541015625
1716758399835055900,4.772055908203125,-3.8297271728515625,-3.02130126953125,0.8465423583984375
1716758399845187600,4.7821875,-3.716796875,-3.0340728759765625,0.8220367431640625
1716758399855319600,4.792319580078125,-3.6805877685546875,-2.6910552978515625,0.5461273193359375
1716758399865451300,4.802451171875,-3.62945556640625,-2.1445770263671875,0.0710296630859375
1716758399875583200,4.812583251953125,-3.602813720703125,-1.55975341796875,-0.4413604736328125
1716758399885715000,4.82271484375,-3.572998046875,-1.1134033203125,-0.8664093017578125
1716758399895847000,4.832846923828125,-3.479248046875,-0.94189453125,-1.0251312255859375
1716758399905978600,4.842978515625,-3.4185333251953125,-1.161346435546875,-0.986785888671875
1716758399916110600,4.853110595703125,-3.3578033447265625,-1.516082763671875,-0.8653411865234375
1716758399926242300,4.8632421875,-3.1799163818359375,-1.7483062744140625,-0.8067474365234375
1716758399936374300,4.873374267578125,-2.94342041015625,-1.673736572265625,-0.9345855712890625
1716758399946506000,4.883506103515625,-2.7506103515625,-1.180511474609375,-1.2701416015625
1716758399956638000,4.893637939453125,-2.6536712646484375,-0.5402984619140625,-1.6291351318359375
1716758399966769700,4.903769775390625,-2.5865631103515625,-0.0374908447265625,-1.8975830078125
1716758399976901600,4.913901611328125,-2.5396881103515625,0.300201416015625,-2.048858642578125
1716758399987033300,4.924033447265625,-2.655792236328125,0.6485443115234375,-2.09039306640625
1716758399997165000,4.9341650390625,-2.784698486328125,0.981964111328125,-2.00091552734375
1716758400007297000,4.944297119140625,-2.883758544921875,1.2951507568359375,-1.555633544921875
1716758400017428700,4.9544287109375,-2.9050750732421875,1.3452301025390625,-0.7183380126953125
1716758400027560700,4.964560791015625,-2.8464813232421875,0.9766387939453125,0.2191009521484375
1716758400037692400,4.9746923828125,-2.7921600341796875,0.468505859375,0.9381561279296875
1716758400047824400,4.984824462890625,-2.8209075927734375,0.0903472900390625,1.0478668212890625
1716758400057956000,4.9949560546875,-2.9391632080078125,0.0413360595703125,0.70379638671875
1716758400068088000,5.005088134765625,-3.1053466796875,0.2352142333984375,0.4779510498046875
1716758400078219800,5.0152197265625,-3.1309051513671875,0.32470703125,0.6974029541015625
1716758400088351700,5.025351806640625,-2.71331787109375,0.2171173095703125,1.2183074951171875
1716758400098483500,5.0354833984375,-1.8983917236328125,0.232025146484375,1.566650390625
1716758400108615400,5.045615478515625,-0.87042236328125,0.3534698486328125,1.3834381103515625
1716758400118747100,5.0557470703125,-0.1087493896484375,0.598480224609375,0.70379638671875
1716758400128879000,5.065879150390625,0.308837890625,0.890350341796875,-0.0589447021484375
1716758400139010800,5.0760107421875,0.625213623046875,0.9638671875,-0.5723876953125
1716758400149142800,5.086142822265625,0.9149627685546875,0.6006011962890625,-0.6618804931640625
1716758400159274500,5.0962744140625,1.23028564453125,-0.041748046875,-0.4232635498046875
1716758400169406500,5.106406494140625,1.62762451171875,-0.5062103271484375,-0.230438232421875
1716758400179538200,5.1165380859375,2.0366973876953125,-0.5701141357421875,-0.2506866455078125
1716758400189670100,5.126670166015625,2.3882293701171875,-0.313385009765625,-0.4456329345703125
1716758400199801900,5.1368017578125,2.6833038330078125,0.0562591552734375,-0.657623291015625
1716758400209933800,5.146933837890625,2.9379119873046875,0.2597198486328125,-0.7311248779296875
1716758400220065500,5.1570654296875,3.1190032958984375,0.1659698486328125,-0.6373748779296875
1716758400230197500,5.167197509765625,3.167999267578125,0.081817626953125,-0.425384521484375
1716758400240329200,5.1773291015625,3.121124267578125,0.2810211181640625,-0.185699462890625
1716758400250461200,5.187461181640625,3.0636138916015625,0.9010162353515625,0.0230865478515625
1716758400260593000,5.197593017578125,3.1754608154296875,1.7287139892578125,0.0475921630859375
1716758400270724900,5.207724853515625,3.4257965087890625,2.5223388671875,-0.116455078125
1716758400280856600,5.217856689453125,3.7496337890625,2.9729461669921875,-0.4126129150390625
1716758400290988500,5.227988525390625,4.1160888671875,3.0432586669921875,-0.782257080078125
1716758400301120300,5.238120361328125,4.3951873779296875,2.7140960693359375,-1.20196533203125
1716758400311252200,5.248252197265625,4.6380615234375,2.114349365234375,-1.4821319580078125
1716758400321384000,5.258384033203125,4.9299468994140625,1.404876708984375,-1.5822601318359375
1716758400331515600,5.268515625,5.2708282470703125,0.7145843505859375,-1.476806640625
1716758400341647600,5.278647705078125,5.5605926513671875,0.2384185791015625,-1.123138427734375
1716758400351779300,5.288779296875,5.6830902099609375,0.17449951171875,-0.688507080078125
1716758400361911300,5.298911376953125,5.59893798828125,0.66558837890625,-0.4690704345703125
1716758400372043000,5.30904296875,5.3240966796875,1.4570770263671875,-0.6480255126953125
1716758400382175000,5.319175048828125,4.88201904296875,2.161224365234375,-1.0911712646484375
1716758400392306700,5.329306640625,4.4079742431640625,2.4967803955078125,-1.522613525390625
1716758400402438700,5.339438720703125,4.159759521484375,2.5841217041015625,-1.86456298828125
1716758400412570400,5.3495703125,4.19598388671875,2.5298004150390625,-2.1340789794921875
1716758400422702300,5.359702392578125,4.39837646484375,2.362548828125,-2.3109130859375
1716758400432834000,5.369833984375,4.6572418212890625,2.2027587890625,-2.3268890380859375
1716758400442966000,5.379966064453125,4.857513427734375,1.9769287109375,-2.2022552490234375
1716758400453097700,5.39009765625,4.9661712646484375,1.6743927001953125,-1.963623046875
1716758400463229700,5.400229736328125,4.9789581298828125,1.442169189453125,-1.703704833984375
1716758400473361400,5.410361328125,4.935272216796875,1.381439208984375,-1.5950469970703125
1716758400483493400,5.420493408203125,4.8681640625,1.545501708984375,-1.7335357666015625
1716758400493625000,5.430625,4.7499237060546875,1.7968902587890625,-2.0200958251953125
1716758400503757000,5.440757080078125,4.6444549560546875,2.0163421630859375,-2.329010009765625
1716758400513888800,5.450888671875,4.5912017822265625,2.13671875,-2.5655059814453125
1716758400524020700,5.461020751953125,4.5560455322265625,2.13671875,-2.652862548828125
1716758400534152400,5.47115234375,4.5198211669921875,2.0387115478515625,-2.6230316162109375
1716758400544284400,5.481284423828125,4.42181396484375,1.909820556640625,-2.4951934814453125
1716758400554416000,5.491416015625,4.232208251953125,1.827789306640625,-2.25018310546875
1716758400564548000,5.501548095703125,3.9381866455078125,1.8341827392578125,-1.9242095947265625
1716758400574679800,5.5116796875,3.56640625,1.9598846435546875,-1.6749420166015625
1716758400584811800,5.521811767578125,3.2212677001953125,2.1750640869140625,-1.64617919921875
1716758400594943500,5.531943603515625,2.9549560546875,2.387054443359375,-1.7676239013671875
1716758400605075500,5.542075439453125,2.770660400390625,2.62353515625,-1.9444580078125
1716758400615207200,5.552207275390625,2.654541015625,2.7247467041015625,-2.1756134033203125
1716758400625339100,5.562339111328125,2.597015380859375,2.5692138671875,-2.38653564453125
1716758400635470800,5.572470947265625,2.540557861328125,2.250701904296875,-2.4376678466796875
1716758400645602600,5.5826025390625,2.4351043701171875,1.9907684326171875,-2.2352752685546875
1716758400655734500,5.592734619140625,2.1709136962890625,2.00994873046875,-1.9252777099609375
1716758400665866200,5.6028662109375,1.7629241943359375,2.3593597412109375,-1.6760101318359375
1716758400675998200,5.612998291015625,1.264373779296875,2.7790679931640625,-1.6504364013671875
1716758400686130000,5.6231298828125,0.822296142578125,2.8280792236328125,-1.908233642578125
1716758400696262000,5.633261962890625,0.4153594970703125,2.3146209716796875,-2.0030517578125
1716758400706393600,5.6433935546875,0.058502197265625,1.5721282958984375,-1.4959716796875
1716758400716525600,5.653525634765625,-0.30902099609375,1.179046630859375,-0.7279205322265625
1716758400726657300,5.6636572265625,-0.6775970458984375,0.9926300048828125,-0.1931610107421875
1716758400736789200,5.673789306640625,-1.00677490234375,0.7763671875,0.0113677978515625
1716758400746921000,5.6839208984375,-1.245391845703125,0.380096435546875,0.2073822021484375
1716758400757053000,5.694052978515625,-1.5798797607421875,-0.2303009033203125,0.70166015625
1716758400767184600,5.7041845703125,-2.1295623779296875,-0.9695892333984375,1.5070037841796875
1716758400777316600,5.714316650390625,-2.761260986328125,-1.7483062744140625,2.4284515380859375
1716758400787448300,5.7244482421875,-3.205474853515625,-2.082794189453125,2.846038818359375
1716758400797580300,5.734580322265625,-3.5644683837890625,-1.8132781982421875,2.5914459228515625
1716758400807712000,5.7447119140625,-3.992706298828125,-1.3477630615234375,2.194091796875
1716758400817844000,5.754843994140625,-4.4656829833984375,-1.0153961181640625,1.830841064453125
1716758400827975700,5.7649755859375,-4.8353271484375,-0.8790435791015625,1.63482666015625
1716758400838107600,5.775107666015625,-5.0132293701171875,-0.96533203125,1.6859588623046875
1716758400848239400,5.7852392578125,-5.0121612548828125,-1.24017333984375,1.988494873046875
1716758400858371300,5.795371337890625,-4.9131011962890625,-1.685455322265625,2.42205810546875
1716758400868503000,5.8055029296875,-4.7724761962890625,-2.2979736328125,2.8417816162109375
1716758400878635000,5.815635009765625,-4.6031036376953125,-2.846588134765625,3.179473876953125
1716758400888766700,5.8257666015625,-4.42840576171875,-3.074554443359375,3.304107666015625
1716758400898898700,5.835898681640625,-4.24090576171875,-2.834869384765625,3.1847991943359375
1716758400909030400,5.846030517578125,-4.0566253662109375,-2.2617645263671875,2.902496337890625
1716758400919162400,5.856162353515625,-3.93731689453125,-1.6865234375,2.6702728271484375
1716758400929294000,5.866294189453125,-3.9426422119140625,-1.544830322265625,2.6212615966796875
1716758400939426000,5.876426025390625,-3.96820068359375,-1.91448974609375,2.87054443359375
1716758400949557800,5.886557861328125,-3.924530029296875,-2.5323333740234375,3.2849273681640625
1716758400959689500,5.896689453125,-3.8158721923828125,-3.029815673828125,3.566162109375
1716758400969821400,5.906821533203125,-3.637969970703125,-3.0362091064453125,3.542724609375
1716758400979953200,5.916953125,-3.431304931640625,-2.446044921875,3.224212646484375
1716758400990085000,5.927085205078125,-3.24169921875,-1.6353912353515625,2.7959747314453125
1716758401000216800,5.937216796875,-3.1074676513671875,-1.0399017333984375,2.503021240234375
1716758401010348800,5.947348876953125,-3.0510101318359375,-0.839630126953125,2.4188690185546875
1716758401020480500,5.95748046875,-3.1287689208984375,-0.8779754638671875,2.446563720703125
1716758401030612500,5.967612548828125,-3.3034820556640625,-0.966400146484375,2.53924560546875
1716758401040744200,5.977744140625,-3.50482177734375,-0.9823760986328125,2.55096435546875
1716758401050876200,5.987876220703125,-3.628387451171875,-0.9152679443359375,2.3709259033203125
1716758401061008000,5.9980078125,-3.534637451171875,-0.8140716552734375,2.0311126708984375
1716758401071139800,6.008139892578125,-3.412139892578125,-0.8332366943359375,1.6540069580078125
1716758401081271600,6.018271484375,-3.3503570556640625,-0.9706573486328125,1.3376312255859375
1716758401091403500,6.028403564453125,-3.3013458251953125,-1.1538848876953125,1.1288299560546875
1716758401101535200,6.03853515625,-3.24169921875,-1.215667724609375,1.0936737060546875
1716758401111667200,6.048667236328125,-3.219329833984375,-1.2689361572265625,1.04254150390625
1716758401121799000,6.058798828125,-3.2779083251953125,-1.319000244140625,0.9157867431640625
1716758401131931000,6.068930908203125,-3.5506134033203125,-1.2700042724609375,0.7432098388671875
1716758401142062600,6.0790625,-3.9756622314453125,-1.2071533203125,0.5280303955078125
1716758401152194600,6.089194580078125,-4.2835235595703125,-1.100616455078125,0.2191009521484375
1716758401162326300,6.099326171875,-4.2718048095703125,-0.9355010986328125,-0.105804443359375
1716758401172458200,6.109458251953125,-3.947967529296875,-0.9397735595703125,-0.3859710693359375
1716758401182590000,6.11958984375,-3.5442352294921875,-1.1517486572265625,-0.507415771484375
1716758401192722000,6.129721923828125,-3.2108001708984375,-1.31793212890625,-0.4413604736328125
1716758401202853600,6.139853515625,-2.9593963623046875,-1.31793212890625,-0.3550872802734375
1716758401212985600,6.149985595703125,-2.840087890625,-1.0867767333984375,-0.3295135498046875
1716758401223117300,6.160117431640625,-2.9380950927734375,-0.6510772705078125,-0.3859710693359375
1716758401233249300,6.170249267578125,-3.1639251708984375,-0.108856201171875,-0.4786529541015625
1716758401243381000,6.180381103515625,-3.2821807861328125,0.4056549072265625,-0.417938232421875
1716758401253513000,6.190512939453125,-3.261932373046875,0.6016693115234375,-0.154815673828125
1716758401263644700,6.200644775390625,-3.1884307861328125,0.26611328125,0.3330841064453125
1716758401273776600,6.210776611328125,-3.0701904296875,-0.3911590576171875,0.9317626953125
1716758401283908400,6.220908447265625,-2.9135894775390625,-1.0047454833984375,1.2587890625
1716758401294040000,6.2310400390625,-2.7974853515625,-1.149627685546875,1.2183074951171875
1716758401304172000,6.241172119140625,-2.7900238037109375,-0.7778472900390625,1.057464599609375
1716758401314303700,6.2513037109375,-2.863525390625,-0.2420196533203125,0.9701080322265625
1716758401324435700,6.261435791015625,-2.8549957275390625,0.0775604248046875,1.0361480712890625
1716758401334567400,6.2715673828125,-2.6206512451171875,0.0328216552734375,1.240692138671875
1716758401344699400,6.281699462890625,-2.1497955322265625,-0.077972412109375,1.4047393798828125
1716758401354831000,6.2918310546875,-1.4009246826171875,-0.0247039794921875,1.144805908203125
1716758401364963000,6.301963134765625,-0.5060882568359375,0.152130126953125,0.5269622802734375
1716758401375094800,6.3120947265625,0.282196044921875,0.3417510986328125,-0.0972900390625
1716758401385226800,6.322226806640625,0.751983642578125,0.4301605224609375,-0.4573516845703125
1716758401395358500,6.3323583984375,0.9597015380859375,0.333221435546875,-0.5127410888671875
1716758401405490400,6.342490478515625,1.1674346923828125,0.013641357421875,-0.3114013671875
1716758401415622100,6.3526220703125,1.5434722900390625,-0.395416259765625,-0.0461578369140625
1716758401425754000,6.362754150390625,2.042022705078125,-0.680908203125,0.10723876953125
1716758401435885800,6.3728857421875,2.5149993896484375,-0.6840972900390625,0.0262908935546875
1716758401446017800,6.383017822265625,2.8665313720703125,-0.4028778076171875,-0.2964935302734375
1716758401456149500,6.3931494140625,3.0859832763671875,-0.1152496337890625,-0.71087646484375
1716758401466281500,6.403281494140625,3.0721282958984375,-0.0566558837890625,-0.928192138671875
1716758401476413200,6.4134130859375,2.860137939453125,-0.181304931640625,-0.8344573974609375
1716758401486545200,6.423545166015625,2.6279144287109375,-0.2164459228515625,-0.5329742431640625
1716758401496676900,6.4336767578125,2.4819793701171875,0.005126953125,-0.20806884765625
1716758401506808800,6.443808837890625,2.5160675048828125,0.380096435546875,0.07421875
1716758401516940500,6.4539404296875,2.721649169921875,0.8168487548828125,0.301116943359375
1716758401527072500,6.464072509765625,2.9815826416015625,1.348419189453125,0.4481353759765625
1716758401537204200,6.474204345703125,3.28411865234375,1.9683990478515625,0.3756866455078125
1716758401547336200,6.484336181640625,3.7560272216796875,2.5106201171875,-0.1121978759765625
1716758401557468000,6.494468017578125,4.25030517578125,2.89837646484375,-0.8195343017578125
1716758401567599900,6.504599853515625,4.573089599609375,3.1881256103515625,-1.43206787109375
1716758401577731600,6.514731689453125,4.9150390625,3.2563018798828125,-1.9327392578125
1716758401587863600,6.524863525390625,5.3315582275390625,2.936737060546875,-2.1873321533203125
1716758401597995300,6.534995361328125,5.5904083251953125,2.2890472412109375,-2.0413970947265625
1716758401608127000,6.545126953125,5.607452392578125,1.508209228515625,-1.5726776123046875
1716758401618259000,6.555259033203125,5.531829833984375,0.9670562744140625,-1.0688018798828125
1716758401628390700,6.565390625,5.496673583984375,1.0245819091796875,-0.8972930908203125
1716758401638522600,6.575522705078125,5.49774169921875,1.5263214111328125,-1.052825927734375
1716758401648654300,6.585654296875,5.5019989013671875,2.05682373046875,-1.292510986328125
1716758401658786300,6.595786376953125,5.515838623046875,2.3582916259765625,-1.534332275390625
1716758401668918000,6.60591796875,5.5605926513671875,2.4275360107421875,-1.725006103515625
1716758401679050000,6.616050048828125,5.5211639404296875,2.377471923828125,-1.8560333251953125
1716758401689181700,6.626181640625,5.3848114013671875,2.3710784912109375,-1.95404052734375
1716758401699313700,6.636313720703125,5.1802825927734375,2.52447509765625,-2.112762451171875
1716758401709445400,6.6464453125,4.980010986328125,2.5809326171875,-2.1745452880859375
1716758401719577300,6.656577392578125,4.7584381103515625,2.400909423828125,-2.117034912109375
1716758401729709000,6.666708984375,4.5326080322265625,2.0184783935546875,-2.009429931640625
1716758401739841000,6.676841064453125,4.3728179931640625,1.6062164306640625,-1.9242095947265625
1716758401749972700,6.68697265625,4.251373291015625,1.5987548828125,-1.9828033447265625
1716758401760104700,6.697104736328125,4.1661529541015625,2.121795654296875,-2.2938690185546875
1716758401770236400,6.707236328125,4.0532379150390625,2.77374267578125,-2.6762847900390625
1716758401780368400,6.717368408203125,3.955230712890625,3.057098388671875,-2.7977294921875
1716758401790500000,6.7275,3.933929443359375,2.798248291015625,-2.625152587890625
1716758401800632000,6.737632080078125,3.816741943359375,2.307159423828125,-2.208648681640625
1716758401810763800,6.747763671875,3.5514984130859375,2.1324615478515625,-1.736724853515625
1716758401820895700,6.757895751953125,3.2308502197265625,2.3231353759765625,-1.418212890625
1716758401831027500,6.76802734375,2.8889007568359375,2.556427001953125,-1.2413787841796875
1716758401841159400,6.778159423828125,2.49688720703125,2.704498291015625,-1.2743988037109375
1716758401851291100,6.788291015625,2.039886474609375,2.7694854736328125,-1.4033050537109375
1716758401861423000,6.798423095703125,1.5669097900390625,2.784393310546875,-1.5140838623046875
1716758401871554800,6.808554931640625,1.2121734619140625,2.8120880126953125,-1.6973114013671875
1716758401881686800,6.818686767578125,1.0417327880859375,2.8834686279296875,-2.0073089599609375
1716758401891818500,6.828818603515625,0.9597015380859375,2.7939910888671875,-2.345001220703125
1716758401901950500,6.838950439453125,0.9554443359375,2.466949462890625,-2.5772247314453125
1716758401912082200,6.849082275390625,0.8830108642578125,1.8544158935546875,-2.4845428466796875
1716758401922214000,6.8592138671875,0.86383056640625,1.1737213134765625,-2.40252685546875
1716758401932345900,6.869345947265625,0.942657470703125,0.697540283203125,-2.7252960205078125
1716758401942477600,6.8794775390625,0.9714202880859375,0.7731781005859375,-3.02569580078125
1716758401952609500,6.889609619140625,0.7818145751953125,0.9478759765625,-2.66351318359375
1716758401962741200,6.8997412109375,0.3439788818359375,0.676239013671875,-1.69091796875
1716758401972873200,6.909873291015625,-0.2099456787109375,0.119110107421875,-0.448822021484375
1716758401983005000,6.9200048828125,-0.6935882568359375,-0.3123321533203125,0.48541259765625
1716758401993137000,6.930136962890625,-1.0930633544921875,-0.4220428466796875,0.827362060546875
1716758402003268600,6.9402685546875,-1.426483154296875,-0.30487060546875,0.8550567626953125
1716758402013400600,6.950400634765625,-1.804656982421875,-0.2185821533203125,0.9498748779296875
1716758402023532300,6.9605322265625,-2.28082275390625,-0.38262939453125,1.2683868408203125
1716758402033664300,6.970664306640625,-2.71759033203125,-0.680908203125,1.566650390625
1716758402043796000,6.9807958984375,-3.1681976318359375,-0.886505126953125,1.7147216796875
1716758402053928000,6.990927978515625,-3.810546875,-1.0963592529296875,1.680633544921875
1716758402064059600,7.0010595703125,-4.4433135986328125,-1.309417724609375,1.569854736328125
1716758402074191600,7.011191650390625,-4.8172149658203125,-1.5299224853515625,1.5655975341796875
1716758402084323300,7.0213232421875,-4.918426513671875,-1.8505706787109375,1.797821044921875
1716758402094455300,7.031455322265625,-4.8630218505859375,-2.2148895263671875,2.1994171142578125
1716758402104587000,7.0415869140625,-4.678741455078125,-2.3853302001953125,2.55841064453125
1716758402114719000,7.051718994140625,-4.41241455078125,-2.571746826171875,2.8524322509765625
1716758402124850700,7.0618505859375,-4.11627197265625,-2.8401947021484375,3.2284698486328125
1716758402134982700,7.071982666015625,-3.8595428466796875,-2.9669647216796875,3.5001068115234375
1716758402145114400,7.0821142578125,-3.717864990234375,-2.7613677978515625,3.51715087890625
1716758402155246300,7.092246337890625,-3.6241302490234375,-2.4982452392578125,3.334991455078125
1716758402165378000,7.1023779296875,-3.5452880859375,-2.447113037109375,3.219940185546875
1716758402175510000,7.112510009765625,-3.5069427490234375,-2.5685577392578125,3.2870635986328125
1716758402185641700,7.122641845703125,-3.5090789794921875,-2.8540496826171875,3.5469818115234375
1716758402195773700,7.132773681640625,-3.502685546875,-3.2396697998046875,3.9102325439453125
1716758402205905400,7.142905517578125,-3.522918701171875,-3.337677001953125,4.0284881591796875
1716758402216037400,7.153037353515625,-3.5687255859375,-2.7752227783203125,3.5970458984375
1716758402226169000,7.163169189453125,-3.5687255859375,-2.017822265625,2.9195404052734375
1716758402236300800,7.17330078125,-3.6017608642578125,-1.628997802734375,2.43377685546875
1716758402246432800,7.183432861328125,-3.663543701171875,-1.5895843505859375,2.26226806640625
1716758402256564500,7.193564453125,-3.684844970703125,-1.7813262939453125,2.2122039794921875
1716758402266696400,7.203696533203125,-3.614532470703125,-1.9901123046875,2.287841796875
1716758402276828200,7.213828125,-3.454742431640625,-2.0987701416015625,2.4529571533203125
1716758402286960000,7.223960205078125,-3.273651123046875,-2.1232757568359375,2.672393798828125
1716758402297091800,7.234091796875,-3.2086639404296875,-2.1339263916015625,2.7203369140625
1716758402307223800,7.244223876953125,-3.17352294921875,-2.071075439453125,2.5211334228515625
1716758402317355500,7.25435546875,-3.0861663818359375,-1.9432525634765625,2.194091796875
1716758402327487500,7.264487548828125,-2.875244140625,-1.8069000244140625,1.94482421875
1716758402337619200,7.274619140625,-2.5737762451171875,-1.6929168701171875,1.9384307861328125
1716758402347751200,7.284751220703125,-2.329833984375,-1.6545562744140625,2.2111358642578125
1716758402357883000,7.2948828125,-2.2446136474609375,-1.695037841796875,2.4827880859375
1716758402368014800,7.305014892578125,-2.3340911865234375,-1.6652069091796875,2.460418701171875
1716758402378146600,7.315146484375,-2.545013427734375,-1.54803466796875,2.1131439208984375
1716758402388278500,7.325278564453125,-2.8123931884765625,-1.340301513671875,1.5964813232421875
1716758402398410200,7.33541015625,-3.0861663818359375,-1.034576416015625,1.080902099609375
1716758402408542200,7.345542236328125,-3.264068603515625,-0.7554779052734375,0.6505279541015625
1716758402418674000,7.355673828125,-3.3226470947265625,-0.6276397705078125,0.33734130859375
1716758402428806000,7.365805908203125,-3.2480926513671875,-0.56585693359375,0.110443115234375
1716758402438937600,7.3759375,-3.0872344970703125,-0.566925048828125,-0.037628173828125
1716758402449069600,7.386069580078125,-2.911468505859375,-0.716064453125,-0.1015472412109375
1716758402459201300,7.396201171875,-2.8827056884765625,-0.896087646484375,-0.0919647216796875
1716758402469333200,7.406333251953125,-3.1415557861328125,-0.9141998291015625,-0.131378173828125
1716758402479465000,7.41646484375,-3.5559539794921875,-0.5509490966796875,-0.246429443359375
1716758402489597000,7.426596923828125,-3.85528564453125,0.12017822265625,-0.48504638671875
1716758402499728600,7.436728759765625,-3.869140625,0.812591552734375,-0.755615234375
1716758402509860600,7.446860595703125,-3.659271240234375,1.268524169921875,-0.896240234375
1716758402519992300,7.456992431640625,-3.4132080078125,1.39422607421875,-0.8791961669921875
1716758402530124300,7.467124267578125,-3.308807373046875,1.3377685546875,-0.56280517578125
1716758402540256000,7.477256103515625,-3.3737945556640625,1.202484130859375,-0.13031005859375
1716758402550387700,7.4873876953125,-3.3663330078125,1.1822357177734375,0.0593109130859375
1716758402560519700,7.497519775390625,-3.0499420166015625,1.2312469482421875,0.01776123046875
1716758402570651400,7.5076513671875,-2.4310302734375,1.063995361328125,-0.0685272216796875
1716758402580783400,7.517783447265625,-1.61822509765625,0.6357574462890625,0.05291748046875
1716758402590915000,7.5279150390625,-0.744720458984375,0.0775604248046875,0.3522491455078125
1716758402601047000,7.538047119140625,0.07659912109375,-0.352813720703125,0.6292266845703125
1716758402611178800,7.5481787109375,0.7253570556640625,-0.5051422119140625,0.679290771484375
1716758402621310700,7.558310791015625,1.1322784423828125,-0.374114990234375,0.475830078125
1716758402631442400,7.5684423828125,1.355987548828125,-0.108856201171875,0.211639404296875
1716758402641574400,7.578574462890625,1.563720703125,-0.0129852294921875,0.11895751953125
1716758402651706000,7.5887060546875,1.877960205078125,-0.20367431640625,0.213775634765625
1716758402661838000,7.598838134765625,2.256134033203125,-0.5030059814453125,0.3682403564453125
1716758402671969800,7.6089697265625,2.607666015625,-0.66705322265625,0.392730712890625
1716758402682101800,7.619101806640625,2.8537445068359375,-0.50726318359375,0.2052459716796875
1716758402692233500,7.6292333984375,2.973052978515625,-0.0470733642578125,-0.1239166259765625
1716758402702365400,7.639365478515625,3.0028839111328125,0.539886474609375,-0.4083404541015625
1716758402712497200,7.6494970703125,3.052947998046875,1.030975341796875,-0.5681304931640625
1716758402722629000,7.659629150390625,3.1956939697265625,1.2557373046875,-0.6618804931640625
1716758402732760800,7.6697607421875,3.4470977783203125,1.248291015625,-0.686370849609375
1716758402742892800,7.679892822265625,3.7890472412109375,1.2322998046875,-0.69171142578125
1716758402753024500,7.6900244140625,4.1682891845703125,1.39422607421875,-0.7950286865234375
1716758402763156500,7.700156494140625,4.469757080078125,1.705291748046875,-0.9793243408203125
1716758402773288200,7.7102880859375,4.6252899169921875,2.04510498046875,-1.1955718994140625
1716758402783420200,7.720420166015625,4.70623779296875,2.350830078125,-1.397979736328125
1716758402793552000,7.7305517578125,4.8287506103515625,2.5841217041015625,-1.5982513427734375
1716758402803683800,7.740683837890625,4.993865966796875,2.6299285888671875,-1.774017333984375
1716758402813815600,7.750815673828125,5.1824188232421875,2.556427001953125,-1.8741455078125
1716758402823947500,7.760947509765625,5.3177032470703125,2.432861328125,-1.8666839599609375
1716758402834079200,7.771079345703125,5.381622314453125,2.2230072021484375,-1.748443603515625
1716758402844211200,7.781211181640625,5.4008026123046875,2.0280609130859375,-1.61102294921875
1716758402854343000,7.791343017578125,5.3975982666015625,2.0174102783203125,-1.5524444580078125
1716758402864475000,7.801474853515625,5.3645782470703125,2.27093505859375,-1.6834716796875
1716758402874606600,7.811606689453125,5.2846832275390625,2.6746826171875,-1.97747802734375
1716758402884738300,7.82173828125,5.139801025390625,3.037933349609375,-2.2928009033203125
1716758402894870300,7.831870361328125,4.9331512451171875,3.2563018798828125,-2.5186309814453125
1716758402905002000,7.842001953125,4.7243499755859375,3.2690887451171875,-2.6219635009765625
1716758402915134000,7.852134033203125,4.548583984375,3.09332275390625,-2.5548553466796875
1716758402925265700,7.862265625,4.444183349609375,2.8035736083984375,-2.4195709228515625
1716758402935397600,7.872397705078125,4.42608642578125,2.48931884765625,-2.33221435546875
1716758402945529300,7.882529296875,4.420745849609375,2.1899871826171875,-2.3055877685546875
1716758402955661300,7.892661376953125,4.33447265625,1.9449615478515625,-2.2778778076171875
1716758402965793000,7.90279296875,4.19384765625,1.8235321044921875,-2.1894683837890625
1716758402975925000,7.912925048828125,4.0809326171875,1.9588165283203125,-2.16070556640625
1716758402986056700,7.923056640625,4.0340576171875,2.21661376953125,-2.2640380859375
1716758402996188700,7.933188720703125,3.9946441650390625,2.4605560302734375,-2.39080810546875
1716758403006320400,7.9433203125,3.8955841064453125,2.5202178955078125,-2.502655029296875
1716758403016452400,7.953452392578125,3.70489501953125,2.3593597412109375,-2.5101165771484375
1716758403026584000,7.963583984375,3.409820556640625,2.0642852783203125,-2.376953125
1716758403036716000,7.973716064453125,3.14776611328125,1.7532196044921875,-2.114898681640625
1716758403046847700,7.98384765625,3.0284576416015625,1.6030120849609375,-1.81982421875
1716758403056979700,7.993979736328125,2.99755859375,1.6104736328125,-1.6280670166015625
1716758403067111400,8.004111328125,2.9112701416015625,1.7159423828125,-1.5481719970703125
1716758403077243400,8.014243408203125,2.665191650390625,1.9929046630859375,-1.5822601318359375
1716758403087375000,8.024375,2.2572021484375,2.43072509765625,-1.8134307861328125
1716758403097507000,8.034507080078125,1.83428955078125,2.7545623779296875,-2.0744171142578125
1716758403107638800,8.044638671875,1.515777587890625,2.6991729736328125,-2.1649627685546875
1716758403117770800,8.054770751953125,1.33148193359375,2.377471923828125,-2.05523681640625
1716758403127902500,8.06490234375,1.28887939453125,2.168670654296875,-1.9838714599609375
1716758403138034400,8.075034423828125,1.297393798828125,2.13458251953125,-2.058441162109375
1716758403148166100,8.085166259765625,1.2462615966796875,2.1324615478515625,-2.10211181640625
1716758403158298000,8.095298095703125,1.0491943359375,2.065338134765625,-1.955108642578125
1716758403168429800,8.105429931640625,0.71575927734375,1.7787933349609375,-1.6834716796875
1716758403178561800,8.115561767578125,0.40789794921875,1.179046630859375,-1.306365966796875
1716758403188693500,8.125693603515625,0.1074981689453125,0.4205780029296875,-0.85150146484375
1716758403198825200,8.1358251953125,-0.2557525634765625,0.154266357421875,-0.345489501953125
1716758403208957200,8.145957275390625,-0.8256683349609375,0.528167724609375,-0.0355072021484375
1716758403219089000,8.1560888671875,-1.45098876953125,0.9244384765625,0.14239501953125
1716758403229220900,8.166220947265625,-1.91436767578125,0.915924072265625,0.3341522216796875
1716758403239352600,8.1763525390625,-2.1860198974609375,0.5239105224609375,0.6036529541015625
1716758403249484500,8.186484619140625,-2.363922119140625,-0.1184539794921875,1.0244293212890625
1716758403259616300,8.1966162109375,-2.615325927734375,-0.8556060791015625,1.548553466796875
1716758403269748200,8.206748291015625,-3.0297088623046875,-1.3914337158203125,1.990631103515625
1716758403279880000,8.2168798828125,-3.3940277099609375,-1.4990386962890625,2.1205902099609375
1716758403290012000,8.227011962890625,-3.6315765380859375,-1.34136962890625,1.9735870361328125
1716758403300143600,8.2371435546875,-3.788177490234375,-1.12298583984375,1.8585357666015625
1716758403310275600,8.247275634765625,-3.9383697509765625,-1.203948974609375,1.90008544921875
1716758403320407300,8.2574072265625,-4.006561279296875,-1.582122802734375,2.300628662109375
1716758403330539300,8.267539306640625,-3.9873809814453125,-2.127532958984375,2.8545684814453125
1716758403340671000,8.2776708984375,-3.9703369140625,-2.663360595703125,3.2710723876953125
1716758403350803000,8.287802978515625,-4.0640716552734375,-2.9009246826171875,3.3903961181640625
1716758403360934700,8.2979345703125,-4.244110107421875,-2.7943878173828125,3.219940185546875
1716758403371066600,8.308066650390625,-4.40496826171875,-2.60797119140625,3.015411376953125
1716758403381198300,8.3181982421875,-4.4784698486328125,-2.5248870849609375,2.9685516357421875
1716758403391330300,8.328330322265625,-4.448638916015625,-2.5696258544921875,3.0771942138671875
1716758403401462000,8.3384619140625,-4.347442626953125,-2.54937744140625,3.2891845703125
1716758403411594000,8.348593994140625,-4.253692626953125,-2.3863983154296875,3.381866455078125
1716758403421725700,8.3587255859375,-4.187652587890625,-2.176544189453125,3.3765411376953125
1716758403431857700,8.368857666015625,-4.1258697509765625,-2.035919189453125,3.3126220703125
1716758403441989400,8.3789892578125,-4.0683441162109375,-2.012481689453125,3.323272705078125
1716758403452121300,8.389121337890625,-4.024658203125,-2.1690826416015625,3.485198974609375
1716758403462253000,8.399253173828125,-3.9895172119140625,-2.3629608154296875,3.7089080810546875
1716758403472385000,8.409385009765625,-3.9660797119140625,-2.4428558349609375,3.84844970703125
1716758403482516700,8.419516845703125,-3.9053497314453125,-2.2692108154296875,3.793060302734375
1716758403492648700,8.429648681640625,-3.8020172119140625,-1.763214111328125,3.495849609375
1716758403502780400,8.439780517578125,-3.684844970703125,-1.112335205078125,3.095306396484375
1716758403512912100,8.449912109375,-3.581512451171875,-0.632965087890625,2.7256622314453125
1716758403523044000,8.460044189453125,-3.4845733642578125,-0.409271240234375,2.4540252685546875
1716758403533175800,8.47017578125,-3.3695220947265625,-0.385833740234375,2.3954315185546875
1716758403543307800,8.480307861328125,-3.264068603515625,-0.49554443359375,2.4668121337890625
1716758403553439500,8.490439453125,-3.2225189208984375,-0.65960693359375,2.549896240234375
1716758403563571500,8.500571533203125,-3.285369873046875,-0.81512451171875,2.5871734619140625
1716758403573703200,8.510703125,-3.34503173828125,-0.93231201171875,2.525390625
1716758403583835100,8.520835205078125,-3.3375701904296875,-0.96533203125,2.376251220703125
1716758403593966800,8.530966796875,-3.2928314208984375,-0.99090576171875,2.216461181640625
1716758403604098800,8.541098876953125,-3.2086639404296875,-0.9717254638671875,2.0545501708984375
1716758403614230500,8.55123046875,-3.104278564453125,-0.886505126953125,1.807403564453125
1716758403624362500,8.561362548828125,-2.998809814453125,-0.80767822265625,1.555999755859375
1716758403634494200,8.571494140625,-2.909332275390625,-0.8225860595703125,1.3578643798828125
1716758403644626200,8.581626220703125,-2.772979736328125,-0.9589385986328125,1.2683868408203125
1716758403654758000,8.5917578125,-2.575897216796875,-1.227386474609375,1.349334716796875
1716758403664889900,8.601889892578125,-2.3255615234375,-1.673736572265625,1.525115966796875
1716758403675021600,8.612021484375,-2.0645751953125,-2.1243438720703125,1.7115325927734375
1716758403685153500,8.622153564453125,-1.870697021484375,-2.3395233154296875,1.7381591796875
1716758403695285200,8.63228515625,-1.76629638671875,-2.22979736328125,1.513397216796875
1716758403705417200,8.642417236328125,-1.6864013671875,-1.8942413330078125,1.0819549560546875
1716758403715549000,8.652548828125,-1.5596466064453125,-1.5416412353515625,0.50885009765625
1716758403725681000,8.662680908203125,-1.414764404296875,-1.3264617919921875,-0.0248565673828125
1716758403735812600,8.6728125,-1.24432373046875,-1.29876708984375,-0.34869384765625
1716758403745944600,8.682944580078125,-1.00677490234375,-1.3136749267578125,-0.3082122802734375
1716758403756076300,8.693076171875,-0.733001708984375,-1.1453704833984375,0.0145721435546875
1716758403766208300,8.703208251953125,-0.505035400390625,-0.9237823486328125,0.347991943359375
1716758403776340000,8.713340087890625,-0.4645538330078125,-0.7309722900390625,0.6590576171875
1716758403786472000,8.723471923828125,-0.561492919921875,-0.657470703125,0.8199005126953125
1716758403796603600,8.733603759765625,-0.6690826416015625,-0.6968841552734375,0.8444061279296875
1716758403806735600,8.743735595703125,-0.824615478515625,-0.6990203857421875,0.792205810546875
1716758403816867300,8.753867431640625,-1.04937744140625,-0.4476165771484375,0.714447021484375
1716758403826999300,8.763999267578125,-1.2965240478515625,0.0211029052734375,0.6611785888671875
1716758403837131000,8.774131103515625,-1.44671630859375,0.4418792724609375,0.59088134765625
1716758403847262700,8.7842626953125,-1.4115753173828125,0.6709136962890625,0.47369384765625
1716758403857394700,8.794394775390625,-1.1644287109375,0.6730499267578125,0.3096466064453125
1716758403867526400,8.8045263671875,-0.7383270263671875,0.5430755615234375,0.14453125
1716758403877658400,8.814658447265625,-0.206756591796875,0.3843536376953125,-0.006744384765625
1716758403887790000,8.8247900390625,0.3791351318359375,0.2021942138671875,-0.1462860107421875
1716758403897922000,8.834922119140625,0.9373321533203125,-0.040679931640625,-0.242156982421875
1716758403908053800,8.8450537109375,1.387939453125,-0.1749114990234375,-0.326324462890625
1716758403918185700,8.855185791015625,1.7277679443359375,-0.23455810546875,-0.34869384765625
1716758403928317400,8.8653173828125,1.9898223876953125,-0.2750396728515625,-0.253875732421875
1716758403938449400,8.875449462890625,2.1804962158203125,-0.2665252685546875,-0.0589447021484375
1716758403948581000,8.8855810546875,2.2976837158203125,-0.2281646728515625,0.1594390869140625
1716758403958713000,8.895713134765625,2.40313720703125,-0.1642608642578125,0.3107147216796875
1716758403968844800,8.9058447265625,2.4809112548828125,-0.0822296142578125,0.350128173828125
1716758403978976800,8.915976806640625,2.5363006591796875,0.093536376953125,0.3085784912109375
1716758403989108500,8.9261083984375,2.53948974609375,0.4259033203125,0.2052459716796875
1716758403999240400,8.936240478515625,2.505401611328125,0.8179168701171875,0.0348052978515625
1716758404009372200,8.9463720703125,2.4713134765625,1.2408294677734375,-0.2389678955078125
1716758404019504000,8.956504150390625,2.4574737548828125,1.72552490234375,-0.58624267578125
1716758404029635800,8.9666357421875,2.448944091796875,2.37640380859375,-0.872802734375
1716758404039767800,8.976767822265625,2.528839111328125,2.88665771484375,-1.0933074951171875
1716758404049899500,8.9868994140625,2.748291015625,3.1593780517578125,-1.2083587646484375
1716758404060031500,8.997031494140625,3.113677978515625,3.2222137451171875,-1.24884033203125
1716758404070163200,9.0071630859375,3.5408477783203125,3.0890655517578125,-1.3084869384765625
1716758404080295200,9.017295166015625,3.93499755859375,2.852569580078125,-1.466156005859375
1716758404090427000,9.027427001953125,4.2566986083984375,2.60223388671875,-1.7303314208984375
1716758404100558800,9.037558837890625,4.4420623779296875,2.342315673828125,-1.9678955078125
1716758404110690600,9.047690673828125,4.50384521484375,2.0482940673828125,-2.124481201171875
1716758404120822500,9.057822509765625,4.4995880126953125,1.804351806640625,-2.295989990234375
1716758404130954200,9.067954345703125,4.46868896484375,1.70208740234375,-2.535675048828125
1716758404141086200,9.078086181640625,4.38665771484375,1.701019287109375,-2.8627166748046875
1716758404151218000,9.088218017578125,4.2460479736328125,1.874664306640625,-3.2131805419921875
1716758404161349600,9.098349609375,4.07135009765625,2.281585693359375,-3.484832763671875
1716758404171481600,9.108481689453125,3.854034423828125,2.50103759765625,-3.576446533203125
1716758404181613300,9.11861328125,3.647369384765625,2.362548828125,-3.5018768310546875
1716758404191745300,9.128745361328125,3.5600128173828125,2.0866546630859375,-3.4656524658203125
1716758404201877000,9.138876953125,3.555755615234375,1.8831787109375,-3.527435302734375
1716758404212009000,9.149009033203125,3.5621490478515625,1.8011627197265625,-3.5892181396484375
1716758404222140700,9.159140625,3.581329345703125,1.816070556640625,-3.5732421875
1716758404232272600,9.169272705078125,3.6558990478515625,1.7649383544921875,-3.4368896484375
1716758404242404400,9.179404296875,3.738983154296875,1.6648101806640625,-3.1599273681640625
1716758404252536300,9.189536376953125,3.84124755859375,1.6275177001953125,-2.8520660400390625
1716758404262668000,9.19966796875,3.9168853759765625,1.745758056640625,-2.6912078857421875
1716758404272800000,9.209800048828125,3.9605560302734375,1.93963623046875,-2.7018585205078125
1716758404282931700,9.219931640625,4.00103759765625,2.090911865234375,-2.7604522705078125
1716758404293063700,9.230063720703125,4.07879638671875,2.11328125,-2.8360748291015625
1716758404303195400,9.2401953125,4.1874542236328125,1.899169921875,-2.831817626953125
1716758404313327400,9.250327392578125,4.192779541015625,1.46240234375,-2.5868072509765625
1716758404323459000,9.260458984375,4.0670928955078125,1.0341644287109375,-2.091461181640625
1716758404333591000,9.270591064453125,3.9488372802734375,0.9659881591796875,-1.5279388427734375
1716758404343722800,9.28072265625,3.8806610107421875,1.31219482421875,-1.1710662841796875
1716758404353854700,9.290854736328125,3.797576904296875,1.76812744140625,-1.0006256103515625
1716758404363986400,9.300986328125,3.61541748046875,2.0493621826171875,-0.88238525390625
1716758404374118400,9.311118408203125,3.388519287109375,2.1409759521484375,-0.83551025390625
1716758404384250000,9.32125,3.076385498046875,2.0706634521484375,-0.802490234375
1716758404394382000,9.331382080078125,2.7642669677734375,2.0482940673828125,-0.7407073974609375
1716758404404513800,9.341513671875,2.6407012939453125,2.2528228759765625,-0.7428436279296875
1716758404414645800,9.351645751953125,2.676910400390625,2.41900634765625,-0.7769317626953125
1716758404424777500,9.361777587890625,2.6758575439453125,2.351898193359375,-0.69915771484375
1716758404434909400,9.371909423828125,2.5373687744140625,2.1441802978515625,-0.5894317626953125
1716758404445041200,9.382041259765625,2.1943511962890625,2.0238037109375,-0.678924560546875
1716758404455173000,9.392173095703125,1.81298828125,2.1676025390625,-1.045379638671875
1716758404465304800,9.402304931640625,1.54986572265625,2.4829254150390625,-1.5481719970703125
1716758404475436500,9.4124365234375,1.377288818359375,2.6544342041015625,-1.975341796875
1716758404485568500,9.422568603515625,1.3453369140625,2.3380584716796875,-2.151123046875
1716758404495700200,9.4327001953125,1.3751678466796875,1.63604736328125,-1.81982421875
1716758404505832200,9.442832275390625,1.2473297119140625,0.90313720703125,-1.12420654296875
1716758404515964000,9.4529638671875,0.798858642578125,0.575042724609375,-0.4637451171875
1716758404526096000,9.463095947265625,0.2204132080078125,0.5196380615234375,-0.0216522216796875
1716758404536227600,9.4732275390625,-0.25469970703125,0.527099609375,0.265960693359375
1716758404546359600,9.483359619140625,-0.733001708984375,0.424835205078125,0.5940704345703125
1716758404556491300,9.4934912109375,-1.252838134765625,0.046661376953125,1.031890869140625
1716758404566623200,9.503623291015625,-1.7801513671875,-0.5711822509765625,1.579437255859375
1716758404576755000,9.5137548828125,-2.2179718017578125,-1.0526885986328125,1.863861083984375
1716758404586887000,9.523886962890625,-2.5524749755859375,-1.0409698486328125,1.66998291015625
1716758404597018600,9.5340185546875,-2.9029388427734375,-0.6979522705078125,1.297149658203125
1716758404607150600,9.544150634765625,-3.2789764404296875,-0.4241790771484375,1.0617218017578125
1716758404617282300,9.5542822265625,-3.6795196533203125,-0.498748779296875,1.1991424560546875
1716758404627414300,9.564414306640625,-4.0310516357421875,-0.888641357421875,1.6092681884765625
1716758404637546000,9.5745458984375,-4.2164154052734375,-1.3232574462890625,2.0875701904296875
1716758404647678000,9.584677978515625,-4.2483673095703125,-1.7525634765625,2.5211334228515625
1716758404657809700,9.5948095703125,-4.2121429443359375,-2.1424560546875,2.8183441162109375
1716758404667941600,9.604941650390625,-4.2132110595703125,-2.2138214111328125,2.82366943359375
1716758404678073300,9.6150732421875,-4.25689697265625,-2.0220794677734375,2.6329803466796875
1716758404688205300,9.625205322265625,-4.2952423095703125,-1.7600250244140625,2.4241943359375
1716758404698337000,9.6353369140625,-4.3186798095703125,-1.584259033203125,2.331512451171875
1716758404708469000,9.645468994140625,-4.2739410400390625,-1.6044921875,2.3932952880859375
1716758404718600700,9.6556005859375,-4.118408203125,-1.7355194091796875,2.548828125
1716758404728732700,9.665732666015625,-3.9650115966796875,-1.864410400390625,2.6457672119140625
1716758404738864400,9.675864501953125,-3.844635009765625,-1.9656219482421875,2.7043609619140625
1716758404748996400,9.685996337890625,-3.810546875,-2.0550994873046875,2.666015625
1716758404759128000,9.696128173828125,-3.9117431640625,-2.05084228515625,2.60528564453125
1716758404769260000,9.706260009765625,-4.0672760009765625,-1.9293975830078125,2.5893096923828125
1716758404779391700,9.716391845703125,-4.11627197265625,-1.76641845703125,2.59783935546875
1716758404789523500,9.7265234375,-4.0331878662109375,-1.64923095703125,2.651092529296875
1716758404799655400,9.736655517578125,-3.8712615966796875,-1.61834716796875,2.8055572509765625
1716758404809787100,9.746787109375,-3.6997528076171875,-1.6439056396484375,2.9781341552734375
1716758404819919000,9.756919189453125,-3.5431671142578125,-1.5661468505859375,3.0665435791015625
1716758404830050800,9.76705078125,-3.443023681640625,-1.4265899658203125,3.0750732421875
1716758404840182800,9.777182861328125,-3.3940277099609375,-1.3371124267578125,3.0452423095703125
1716758404850314500,9.787314453125,-3.400421142578125,-1.3488311767578125,3.0005035400390625
1716758404860446500,9.797446533203125,-3.4600677490234375,-1.4564208984375,2.9525604248046875
1716758404870578200,9.807578125,-3.571929931640625,-1.617279052734375,2.8737335205078125
1716758404880710100,9.817710205078125,-3.61346435546875,-1.74298095703125,2.8417816162109375
1716758404890841900,9.827841796875,-3.5516815185546875,-1.772796630859375,2.8194122314453125
1716758404900973800,9.837973876953125,-3.444091796875,-1.6758575439453125,2.7746734619140625
1716758404911139800,9.848139892578125,-3.3503570556640625,-1.5171356201171875,2.6574859619140625
1716758404921271800,9.858271728515625,-3.3024139404296875,-1.3925018310546875,2.470001220703125
1716758404931403500,9.868403564453125,-3.299224853515625,-1.352020263671875,2.2494964599609375
1716758404941535500,9.878535400390625,-3.3663330078125,-1.390380859375,1.95867919921875
1716758404951667200,9.888667236328125,-3.514404296875,-1.4297943115234375,1.6518707275390625
1716758404961799200,9.898799072265625,-3.5974884033203125,-1.387176513671875,1.320587158203125
1716758404971931000,9.908930908203125,-3.55914306640625,-1.2806549072265625,1.0627899169921875
1716758404982062800,9.919062744140625,-3.432373046875,-1.2103424072265625,0.9434814453125
1716758404992194600,9.929194580078125,-3.2331695556640625,-1.1741180419921875,0.8657073974609375
1716758405002326500,9.939326416015625,-3.0286407470703125,-1.0995635986328125,0.6761016845703125
1716758405012458200,9.949458251953125,-2.933837890625,-0.9365692138671875,0.359710693359375
1716758405022590200,9.959590087890625,-2.932769775390625,-0.740570068359375,0.040130615234375
1716758405032722000,9.969721923828125,-3.003082275390625,-0.4934234619140625,-0.2634735107421875
1716758405042854000,9.97985400390625,-3.0936279296875,-0.1365509033203125,-0.4680023193359375
1716758405052985600,9.989985595703125,-3.059539794921875,0.2959442138671875,-0.3998260498046875
1716758405063117600,10.00011767578125,-2.975372314453125,0.6613311767578125,-0.0663909912109375
1716758405073249300,10.010249267578125,-2.911468505859375,0.84454345703125,0.2723541259765625
1716758405083381200,10.02038134765625,-2.8795013427734375,0.92657470703125,0.4555816650390625
1716758405093513000,10.030512939453125,-2.8784332275390625,0.9872894287109375,0.5280303955078125
1716758405103645000,10.04064501953125,-2.7985382080078125,1.097015380859375,0.6366729736328125
1716758405113776600,10.050776611328125,-2.64727783203125,1.15240478515625,0.87530517578125
1716758405123908400,10.060908447265625,-2.4672393798828125,1.0117950439453125,1.1544036865234375
1716758405134040300,10.071040283203125,-2.2169036865234375,0.70819091796875,1.36639404296875
1716758405144172000,10.081172119140625,-1.736480712890625,0.4024658203125,1.5315093994140625
1716758405154304000,10.091303955078125,-0.9865264892578125,0.19580078125,1.7253875732421875
1716758405164435700,10.101435791015625,-0.13751220703125,0.0200347900390625,1.93310546875
1716758405174567700,10.111567626953125,0.5953826904296875,-0.14508056640625,2.093963623046875
1716758405184699400,10.121699462890625,1.0864715576171875,-0.1759796142578125,2.1397705078125
1716758405194831400,10.131831298828125,1.3048553466796875,0.0115203857421875,2.0662689208984375
1716758405204963000,10.141963134765625,1.2803497314453125,0.2490692138671875,1.89794921875
1716758405215095000,10.152094970703125,1.205780029296875,0.234161376953125,1.6561431884765625
1716758405225226800,10.162226806640625,1.250518798828125,0.0519866943359375,1.32696533203125
1716758405235358700,10.172358642578125,1.478485107421875,-0.1631927490234375,0.8689117431640625
1716758405245490400,10.182490478515625,1.8151092529296875,-0.2888946533203125,0.3330841064453125
1716758405255622400,10.192622314453125,2.1155242919921875,-0.23455810546875,-0.1793060302734375
1716758405265754000,10.202754150390625,2.3200531005859375,-0.0470733642578125,-0.6171417236328125
1716758405275886000,10.212885986328125,2.4095306396484375,0.20965576171875,-0.9367218017578125
1716758405286017800,10.223017822265625,2.415924072265625,0.40032958984375,-1.1146087646484375
1716758405296149800,10.233149658203125,2.4116668701171875,0.585693359375,-1.2232666015625
1716758405306281500,10.243281494140625,2.4947509765625,0.7944793701171875,-1.36175537109375
1716758405316413400,10.253413330078125,2.690765380859375,0.93829345703125,-1.5662841796875
1716758405326545200,10.263545166015625,2.9379119873046875,1.0330963134765625,-1.7452545166015625
1716758405336677000,10.273677001953125,3.259613037109375,1.1279144287109375,-1.898651123046875
1716758405346808800,10.283808837890625,3.6015625,1.15667724609375,-2.1063690185546875
1716758405356940800,10.29394091796875,3.884918212890625,1.3004913330078125,-2.2938690185546875
1716758405367072500,10.304072509765625,4.0532379150390625,1.609405517578125,-2.432342529296875
1716758405377204500,10.31420458984375,4.0670928955078125,1.97479248046875,-2.5324859619140625
1716758405387336200,10.324336181640625,4.0415191650390625,2.2080841064453125,-2.6549835205078125
1716758405397468200,10.33446826171875,4.0404510498046875,2.3114166259765625,-2.8051910400390625
1716758405407599900,10.344599853515625,4.1043701171875,2.3476409912109375,-2.9308929443359375
1716758405417731800,10.35473193359375,4.29718017578125,2.2677459716796875,-3.0469970703125
1716758405427863600,10.364863525390625,4.5645599365234375,2.034454345703125,-3.1013336181640625
1716758405437995300,10.374995361328125,4.7840118408203125,1.8672027587890625,-3.0533905029296875
1716758405448127200,10.385127197265625,4.9320831298828125,1.9343109130859375,-2.9553985595703125
1716758405458259000,10.395259033203125,4.9981231689453125,2.2347259521484375,-2.9969329833984375
1716758405468391000,10.405390869140625,4.9182281494140625,2.55535888671875,-3.15032958984375
1716758405478522600,10.415522705078125,4.7318115234375,2.62353515625,-3.1929473876953125
1716758405488654600,10.425654541015625,4.55072021484375,2.4371185302734375,-3.0097198486328125
1716758405498786300,10.435786376953125,4.389862060546875,2.180389404296875,-2.6421966552734375
1716758405508918300,10.445918212890625,4.2353973388671875,1.99822998046875,-2.2139739990234375
1716758405519050000,10.456050048828125,4.1437835693359375,1.9843902587890625,-1.8603057861328125
1716758405529182000,10.466181884765625,4.112884521484375,2.145233154296875,-1.694122314453125
1716758405539313700,10.476313720703125,4.0851898193359375,2.330596923828125,-1.71435546875
1716758405549445600,10.486445556640625,4.0084991455078125,2.4509735107421875,-1.8603057861328125
1716758405559577300,10.496577392578125,3.9477691650390625,2.480804443359375,-2.0275421142578125
1716758405569709300,10.506709228515625,3.93072509765625,2.3934478759765625,-2.089324951171875
1716758405579841000,10.516841064453125,3.931793212890625,2.22833251953125,-2.0158233642578125
1716758405589973000,10.526972900390625,3.9371185302734375,2.06854248046875,-1.886932373046875
1716758405600104700,10.537104736328125,3.854034423828125,1.94390869140625,-1.7772064208984375
1716758405610236700,10.547236572265625,3.647369384765625,1.8459014892578125,-1.6983795166015625
1716758405620368400,10.557368408203125,3.4343109130859375,1.7425689697265625,-1.6728057861328125
1716758405630500400,10.567500244140625,3.327789306640625,1.53271484375,-1.579071044921875
1716758405640632000,10.577632080078125,3.349090576171875,1.15240478515625,-1.3425750732421875
1716758405650764000,10.587763916015625,3.4034271240234375,0.826446533203125,-1.041107177734375
1716758405660895700,10.597895751953125,3.3022308349609375,0.824310302734375,-0.8099517822265625
1716758405671027700,10.60802783203125,2.9357757568359375,1.0458831787109375,-0.6714630126953125
1716758405681159400,10.618159423828125,2.404205322265625,1.1865081787109375,-0.6608123779296875
1716758405691291400,10.62829150390625,1.9205780029296875,1.213134765625,-0.8802490234375
1716758405701423000,10.638423095703125,1.64361572265625,1.2610626220703125,-1.226470947265625
1716758405711555000,10.64855517578125,1.5072479248046875,1.3441619873046875,-1.508758544921875
1716758405721686800,10.658686767578125,1.381561279296875,1.49542236328125,-1.625946044921875
1716758405731818800,10.66881884765625,1.2164306640625,1.6339111328125,-1.6067657470703125
1716758405741950500,10.678950439453125,0.9756927490234375,1.5156707763671875,-1.5364532470703125
1716758405752082400,10.68908251953125,0.6752777099609375,1.270660400390625,-1.4799957275390625
1716758405762214100,10.699214111328125,0.4387969970703125,1.1161956787109375,-1.43206787109375
1716758405772345900,10.709345947265625,0.326934814453125,1.1513519287109375,-1.407562255859375
1716758405782477800,10.719477783203125,0.4334716796875,1.0831756591796875,-1.337249755859375
1716758405792609500,10.729609619140625,0.6752777099609375,0.7295074462890625,-1.10076904296875
1716758405802741500,10.739741455078125,0.787139892578125,-0.05133056640625,-0.782257080078125
1716758405812873200,10.749873291015625,0.658233642578125,-0.67132568359375,-0.359344482421875
1716758405823005200,10.760005126953125,0.0968475341796875,-0.78424072265625,0.0028533935546875
1716758405833137000,10.770136962890625,-0.8757476806640625,-0.484893798828125,0.223358154296875
1716758405843268900,10.780268798828125,-1.6821441650390625,-0.053466796875,0.2201690673828125
1716758405853400600,10.790400634765625,-2.0390167236328125,0.232025146484375,0.237213134765625
1716758405863532500,10.800532470703125,-2.1231689453125,0.0977935791015625,0.5493316650390625
1716758405873664300,10.810664306640625,-2.1647186279296875,-0.5030059814453125,0.985015869140625
1716758405883796200,10.820796142578125,-2.291473388671875,-1.320068359375,1.32696533203125
1716758405893928000,10.830927978515625,-2.5940093994140625,-2.0455169677734375,1.49847412109375
1716758405904060000,10.841059814453125,-2.9647216796875,-2.404510498046875,1.3919525146484375
1716758405914191600,10.851191650390625,-3.3375701904296875,-2.18505859375,1.137359619140625
1716758405924323600,10.861323486328125,-3.8052215576171875,-1.6929168701171875,0.9338836669921875
1716758405934455300,10.871455322265625,-4.3069610595703125,-1.30621337890625,0.9253692626953125
1716758405944587300,10.881587158203125,-4.675537109375,-1.3147430419921875,1.01165771484375
1716758405954719000,10.891718994140625,-4.777801513671875,-1.7014312744140625,1.2193756103515625
1716758405964851000,10.901850830078125,-4.6957855224609375,-2.320343017578125,1.536834716796875
1716758405974982700,10.911982666015625,-4.502960205078125,-2.801849365234375,1.94696044921875
1716758405985114600,10.922114501953125,-4.366607666015625,-2.9691009521484375,2.3016815185546875
1716758405995246300,10.932246337890625,-4.2547607421875,-2.8636322021484375,2.4092864990234375
1716758406005378300,10.94237841796875,-4.1333160400390625,-2.618621826171875,2.387969970703125
1716758406015510000,10.952510009765625,-4.0118865966796875,-2.460968017578125,2.3943634033203125
1716758406025642000,10.96264208984375,-3.8957672119140625,-2.480133056640625,2.560546875
1716758406035773700,10.972773681640625,-3.8265228271484375,-2.606903076171875,2.7480316162109375
1716758406045905700,10.98290576171875,-3.798828125,-2.630340576171875,2.8950347900390625
1716758406056037400,10.993037353515625,-3.776458740234375,-2.4780120849609375,2.824737548828125
1716758406066169300,11.00316943359375,-3.7338409423828125,-2.240447998046875,2.653228759765625
1716758406076301000,11.013301025390625,-3.6773834228515625,-2.1360626220703125,2.5882415771484375
1716758406086432800,11.023432861328125,-3.5644683837890625,-2.1829376220703125,2.641510009765625
1716758406096564700,11.033564697265625,-3.397216796875,-2.312896728515625,2.78851318359375
1716758406106696400,11.043696533203125,-3.19696044921875,-2.470550537109375,2.928070068359375
1716758406116828400,11.053828369140625,-2.989227294921875,-2.6005096435546875,2.9525604248046875
1716758406126960000,11.063960205078125,-2.8336944580078125,-2.6345977783203125,2.8385772705078125
1716758406137092000,11.074092041015625,-2.770843505859375,-2.5248870849609375,2.5871734619140625
1716758406147223800,11.084223876953125,-2.83795166015625,-2.2692108154296875,2.2228546142578125
1716758406157355800,11.094355712890625,-2.9487457275390625,-1.9389801025390625,1.8436279296875
1716758406167487500,11.104487548828125,-2.9626007080078125,-1.7461700439453125,1.558135986328125
1716758406177619500,11.114619384765625,-2.8326263427734375,-1.728057861328125,1.4366912841796875
1716758406187751200,11.124751220703125,-2.6430206298828125,-1.876129150390625,1.4366912841796875
1716758406197883100,11.134883056640625,-2.4257049560546875,-2.0455169677734375,1.5240478515625
1716758406208014800,11.145014892578125,-2.2286224365234375,-2.129669189453125,1.569854736328125
1716758406218146800,11.155146728515625,-2.108245849609375,-2.0103607177734375,1.4824981689453125
1716758406228278500,11.165278564453125,-2.1231689453125,-1.732330322265625,1.2460174560546875
1716758406238410500,11.175410400390625,-2.213714599609375,-1.4159393310546875,0.987152099609375
1716758406248542200,11.185542236328125,-2.340484619140625,-1.1677398681640625,0.8220367431640625
1716758406258674200,11.195674072265625,-2.4672393798828125,-1.0739898681640625,0.7059173583984375
1716758406268806000,11.205805908203125,-2.5045318603515625,-1.0377655029296875,0.5503997802734375
1716758406278937900,11.215937744140625,-2.455535888671875,-1.0718536376953125,0.3405303955078125
1716758406289069600,11.226069580078125,-2.3543243408203125,-1.1293792724609375,0.09552001953125
1716758406299201500,11.236201416015625,-2.2541961669921875,-1.1996917724609375,-0.1324462890625
1716758406309333200,11.246333251953125,-2.1146392822265625,-1.30621337890625,-0.131378173828125
1716758406319465200,11.25646533203125,-1.90692138671875,-1.4447021484375,0.10723876953125
1716758406329597000,11.266596923828125,-1.75885009765625,-1.730194091796875,0.2968597412109375
1716758406339729000,11.27672900390625,-1.7077178955078125,-1.853759765625,0.3788909912109375
1716758406349860600,11.286860595703125,-1.7726898193359375,-1.6556243896484375,0.270233154296875
1716758406359992600,11.29699267578125,-1.8781585693359375,-1.173065185546875,-0.086639404296875
1716758406370124300,11.307124267578125,-1.907989501953125,-0.5360260009765625,-0.5351104736328125
1716758406380256300,11.31725634765625,-1.87176513671875,-0.08648681640625,-0.849365234375
1716758406390388000,11.327387939453125,-1.828094482421875,0.006195068359375,-0.9622802734375
1716758406400519700,11.337519775390625,-1.7077178955078125,-0.23883056640625,-0.8536224365234375
1716758406410651600,11.347651611328125,-1.4882659912109375,-0.4923553466796875,-0.481842041015625
1716758406420783400,11.357783447265625,-1.2848052978515625,-0.4476165771484375,-0.072784423828125
1716758406430915300,11.367915283203125,-1.19000244140625,-0.0939483642578125,0.2180328369140625
1716758406441047000,11.378047119140625,-1.3210296630859375,0.3161773681640625,0.2574462890625
1716758406451179000,11.388178955078125,-1.539398193359375,0.5569305419921875,-0.0568084716796875
1716758406461310700,11.398310791015625,-1.611846923828125,0.5558624267578125,-0.51593017578125
1716758406471442700,11.408442626953125,-1.5223541259765625,0.28955078125,-0.758819580078125
1716758406481574400,11.418574462890625,-1.313568115234375,-0.144012451171875,-0.58837890625
1716758406491706400,11.428706298828125,-1.0877227783203125,-0.4923553466796875,-0.0770416259765625
1716758406501838000,11.438838134765625,-0.8746795654296875,-0.692626953125,0.37249755859375
1716758406511970000,11.448969970703125,-0.5998382568359375,-0.703277587890625,0.6025848388671875
1716758406522101800,11.459101806640625,-0.286651611328125,-0.5605316162109375,0.62176513671875
1716758406532233700,11.469233642578125,0.0606231689453125,-0.4220428466796875,0.5163116455078125
1716758406542365400,11.479365478515625,0.4366607666015625,-0.3432159423828125,0.32562255859375
1716758406552497400,11.489497314453125,0.8052520751953125,-0.37091064453125,0.0784759521484375
1716758406562629000,11.499629150390625,1.106719970703125,-0.428436279296875,-0.19635009765625
1716758406572761000,11.509760986328125,1.2867431640625,-0.4273681640625,-0.470123291015625
1716758406582892800,11.519892822265625,1.3922119140625,-0.4806365966796875,-0.6032867431640625
1716758406593024800,11.530024658203125,1.517913818359375,-0.6404266357421875,-0.5723876953125
1716758406603156500,11.540156494140625,1.6531982421875,-0.76080322265625,-0.437103271484375
1716758406613288400,11.550288330078125,1.74481201171875,-0.7917022705078125,-0.40301513671875
1716758406623420200,11.560420166015625,1.7266998291015625,-0.637237548828125,-0.470123291015625
1716758406633552100,11.57055224609375,1.6670379638671875,-0.338958740234375,-0.56494140625
1716758406643683800,11.580683837890625,1.6904754638671875,-0.0236358642578125,-0.7194061279296875
1716758406653815800,11.59081591796875,1.844940185546875,0.220306396484375,-0.89410400390625
1716758406663947500,11.600947509765625,2.098480224609375,0.3289642333984375,-1.0208740234375
1716758406674079500,11.61107958984375,2.4329681396484375,0.4067230224609375,-1.0965118408203125
1716758406684211200,11.621211181640625,2.7525482177734375,0.5473480224609375,-1.05389404296875
1716758406694343200,11.63134326171875,2.9570770263671875,0.8647918701171875,-0.826995849609375
1716758406704475000,11.641474853515625,3.008209228515625,1.198211669921875,-0.63311767578125
1716758406714606600,11.651606689453125,2.9933013916015625,1.50714111328125,-0.460540771484375
1716758406724738600,11.661738525390625,3.179718017578125,1.747894287109375,-0.47119140625
1716758406734870300,11.671870361328125,3.6015625,1.921539306640625,-0.7162017822265625
1716758406745002200,11.682002197265625,4.159759521484375,2.081329345703125,-1.0485687255859375
1716758406755134000,11.692134033203125,4.7744140625,2.1793212890625,-1.294647216796875
1716758406765266000,11.702265869140625,5.2292938232421875,2.1047515869140625,-1.3116912841796875
1716758406775397600,11.712397705078125,5.449798583984375,1.7393798828125,-1.010223388671875
1716758406785529600,11.722529541015625,5.4561920166015625,1.3079376220703125,-0.54364013671875
1716758406795661300,11.732661376953125,5.3848114013671875,1.063995361328125,-0.2155303955078125
1716758406805793300,11.742793212890625,5.4071807861328125,1.087432861328125,-0.16546630859375
1716758406815925000,11.752925048828125,5.494537353515625,1.2408294677734375,-0.357208251953125
1716758406826057000,11.763056884765625,5.5009307861328125,1.4336395263671875,-0.540435791015625
1716758406836188700,11.773188720703125,5.3773651123046875,1.5806427001953125,-0.63311767578125
1716758406846320600,11.783320556640625,5.176025390625,1.7670745849609375,-0.7034149169921875
1716758406856452400,11.793452392578125,4.9331512451171875,2.034454345703125,-0.8546905517578125
1716758406866584300,11.803584228515625,4.64019775390625,2.3039703369140625,-1.1273956298828125
1716758406876716000,11.813716064453125,4.33447265625,2.431793212890625,-1.4469757080078125
1716758406886848000,11.823847900390625,4.0692138671875,2.3551025390625,-1.7079620361328125
1716758406896979700,11.833979736328125,3.889190673828125,2.147369384765625,-1.8592376708984375
1716758406907111700,11.844111572265625,3.71875,2.0046234130859375,-1.8911895751953125
1716758406917243400,11.854243408203125,3.5184783935546875,1.9588165283203125,-1.853912353515625
1716758406927375400,11.864375244140625,3.32672119140625,2.00994873046875,-1.7559051513671875
1716758406937507000,11.874507080078125,3.156280517578125,2.04510498046875,-1.6525726318359375
1716758406947639000,11.88463916015625,3.00927734375,2.0291290283203125,-1.6312713623046875
1716758406957770800,11.894770751953125,2.904876708984375,2.0078125,-1.75164794921875
1716758406967902700,11.90490283203125,2.8654632568359375,1.7990264892578125,-1.9263458251953125
1716758406978034400,11.915034423828125,2.8377685546875,1.463470458984375,-1.8688201904296875
1716758406988166400,11.92516650390625,2.8079376220703125,1.084228515625,-1.541778564453125
1716758406998298000,11.935298095703125,2.8228607177734375,0.882904052734375,-1.1178131103515625
1716758407008430000,11.94543017578125,2.8122100830078125,0.97344970703125,-0.7886505126953125
1716758407018561800,11.955561767578125,2.666259765625,1.236572265625,-0.5787811279296875
1716758407028693800,11.96569384765625,2.4755859375,1.486907958984375,-0.5564117431640625
1716758407038825500,11.975825439453125,2.3679962158203125,1.588104248046875,-0.6810455322265625
1716758407048957200,11.985957275390625,2.29022216796875,1.6168670654296875,-0.66400146484375
1716758407059089200,11.996089111328125,2.1804962158203125,1.656280517578125,-0.470123291015625
1716758407069220900,12.006220947265625,1.9653167724609375,1.758544921875,-0.2176666259765625
1716758407079352800,12.016352783203125,1.661712646484375,1.89703369140625,-0.030181884765625
1716758407089484500,12.026484619140625,1.412445068359375,2.001434326171875,0.0337371826171875
1716758407099616500,12.036616455078125,1.273956298828125,1.9268646240234375,-0.1004791259765625
1716758407109748200,12.046748291015625,1.2579803466796875,1.6371002197265625,-0.4903717041015625
1716758407119880200,12.056880126953125,1.205780029296875,1.5028839111328125,-1.0389862060546875
1716758407130012000,12.067011962890625,0.9053802490234375,1.7287139892578125,-1.6994476318359375
1716758407140143900,12.077143798828125,0.514434814453125,2.39984130859375,-2.3162384033203125
1716758407150275600,12.087275634765625,0.286468505859375,3.0421905517578125,-2.7252960205078125
1716758407160407600,12.097407470703125,0.272613525390625,3.037933349609375,-2.5665740966796875
1716758407170539300,12.107539306640625,0.3376007080078125,2.3114166259765625,-1.633392333984375
1716758407180671200,12.117671142578125,0.2651519775390625,1.3335113525390625,-0.4520263671875
1716758407190803000,12.127802978515625,0.07659912109375,0.5079345703125,0.27130126953125
1716758407200935000,12.137934814453125,-0.204620361328125,0.0200347900390625,0.4087066650390625
1716758407211066600,12.148066650390625,-0.5742645263671875,0.0413360595703125,0.3788909912109375
1716758407221198600,12.158198486328125,-0.9545745849609375,0.3183135986328125,0.43853759765625
1716758407231330300,12.168330322265625,-1.27734375,0.6932830810546875,0.5717010498046875
1716758407241462300,12.178462158203125,-1.473358154296875,0.9436187744140625,0.747467041015625
1716758407251594000,12.188593994140625,-1.640594482421875,0.7966156005859375,0.940277099609375
1716758407261726000,12.198725830078125,-1.823822021484375,0.2714385986328125,1.2630615234375
1716758407271857700,12.208857666015625,-2.007049560546875,-0.48809814453125,1.6444244384765625
1716758407281989600,12.21898974609375,-2.3095855712890625,-1.208221435546875,2.0396270751953125
1716758407292121300,12.229121337890625,-2.671783447265625,-1.63006591796875,2.2590789794921875
1716758407302253300,12.23925341796875,-2.923187255859375,-1.5885162353515625,2.1696014404296875
1716758407312385000,12.249385009765625,-3.1074676513671875,-1.3115386962890625,1.89794921875
1716758407322517000,12.25951708984375,-3.2960205078125,-1.1187286376953125,1.707275390625
1716758407332648700,12.269648681640625,-3.49310302734375,-1.1986236572265625,1.6220550537109375
1716758407342780700,12.27978076171875,-3.7125396728515625,-1.3456268310546875,1.696624755859375
1716758407352912400,12.289912353515625,-3.8851165771484375,-1.5384521484375,1.8691864013671875
1716758407363044000,12.300044189453125,-3.901092529296875,-1.744049072265625,2.124847412109375
1716758407373176000,12.310176025390625,-3.8180084228515625,-1.887847900390625,2.3592071533203125
1716758407383307800,12.320307861328125,-3.71893310546875,-1.741912841796875,2.423126220703125
1716758407393439700,12.330439697265625,-3.6763153076171875,-1.36480712890625,2.3038177490234375
1716758407403571500,12.340571533203125,-3.6816558837890625,-0.987701416015625,2.25054931640625
1716758407413703400,12.350703369140625,-3.6891021728515625,-0.773590087890625,2.4178009033203125
1716758407423835100,12.360835205078125,-3.6305084228515625,-0.7586669921875,2.7927703857421875
1716758407433967000,12.370967041015625,-3.470733642578125,-0.900360107421875,3.2519073486328125
1716758407444098800,12.381098876953125,-3.285369873046875,-1.157073974609375,3.644989013671875
1716758407454230800,12.391230712890625,-3.127716064453125,-1.3136749267578125,3.94964599609375
1716758407464362500,12.401362548828125,-3.0510101318359375,-1.2817230224609375,4.0604400634765625
1716758407474494500,12.411494384765625,-3.045684814453125,-1.001556396484375,3.89532470703125
1716758407484626200,12.421626220703125,-3.0840301513671875,-0.692626953125,3.6258087158203125
1716758407494758100,12.431758056640625,-3.115997314453125,-0.555206298828125,3.4298095703125
1716758407504889900,12.441889892578125,-3.1096038818359375,-0.587158203125,3.3179473876953125
1716758407515021800,12.452021728515625,-3.115997314453125,-0.703277587890625,3.2529754638671875
1716758407525153500,12.462153564453125,-3.1862945556640625,-0.8470916748046875,3.142181396484375
1716758407535285500,12.472285400390625,-3.2566070556640625,-0.89715576171875,2.8641510009765625
1716758407545417200,12.482417236328125,-3.2821807861328125,-0.8034210205078125,2.5009002685546875
1716758407555549200,12.492549072265625,-3.217193603515625,-0.6521453857421875,2.2569427490234375
1716758407565681000,12.502680908203125,-3.10107421875,-0.6297760009765625,2.14935302734375
1716758407575812900,12.512812744140625,-2.99029541015625,-0.808746337890625,2.1163330078125
1716758407585944600,12.522944580078125,-2.8901519775390625,-1.2103424072265625,2.1536102294921875
1716758407596076500,12.53307666015625,-2.7644500732421875,-1.671600341796875,2.2132720947265625
1716758407606208300,12.543208251953125,-2.6099853515625,-2.0188751220703125,2.1909027099609375
1716758407616340200,12.55334033203125,-2.5439453125,-2.1445770263671875,2.0321807861328125
1716758407626472000,12.563471923828125,-2.671783447265625,-2.0785369873046875,1.774383544921875
1716758407636604000,12.57360400390625,-2.885894775390625,-1.9272613525390625,1.4516143798828125
1716758407646735600,12.583735595703125,-3.012664794921875,-1.7035675048828125,1.0510711669921875
1716758407656867600,12.59386767578125,-3.0062713623046875,-1.4532318115234375,0.6622467041015625
1716758407666999300,12.603999267578125,-2.863525390625,-1.2923736572265625,0.449188232421875
1716758407677131000,12.614131103515625,-2.6515350341796875,-1.295562744140625,0.394866943359375
1716758407687263000,12.624262939453125,-2.44061279296875,-1.29449462890625,0.406585693359375
1716758407697394700,12.634394775390625,-2.260589599609375,-1.1112823486328125,0.373565673828125
1716758407707526700,12.644526611328125,-2.15618896484375,-0.7650604248046875,0.21270751953125
1716758407717658400,12.654658447265625,-2.1838836669921875,-0.329376220703125,-0.0663909912109375
1716758407727790300,12.664790283203125,-2.3575286865234375,0.0882110595703125,-0.3188629150390625
1716758407737922000,12.674922119140625,-2.57696533203125,0.4322967529296875,-0.474395751953125
1716758407748054000,12.685053955078125,-2.763397216796875,0.7987518310546875,-0.47119140625
1716758407758185700,12.695185791015625,-2.8699188232421875,1.0235137939453125,-0.37213134765625
1716758407768317700,12.705317626953125,-2.8582000732421875,0.9809112548828125,-0.2187347412109375
1716758407778449400,12.715449462890625,-2.7772369384765625,0.8179168701171875,-0.006744384765625
1716758407788581400,12.725581298828125,-2.6802978515625,0.6634521484375,0.1392059326171875
1716758407798713000,12.735713134765625,-2.615325927734375,0.5910186767578125,0.17755126953125
1716758407808845000,12.745844970703125,-2.5609893798828125,0.6570587158203125,0.145599365234375
1716758407818976800,12.755976806640625,-2.4725799560546875,0.8530731201171875,0.1274871826171875
1716758407829108700,12.766108642578125,-2.2882843017578125,1.0938262939453125,0.1956634521484375
1716758407839240400,12.776240478515625,-1.90692138671875,1.2610626220703125,0.3682403564453125
1716758407849372400,12.786372314453125,-1.37109375,1.201416015625,0.6856842041015625
1716758407859504000,12.796504150390625,-0.7479095458984375,0.8892974853515625,1.0404205322265625
1716758407869636000,12.806635986328125,-0.0512237548828125,0.43548583984375,1.27264404296875
1716758407879767800,12.816767822265625,0.6337432861328125,-0.0587921142578125,1.3333587646484375
1716758407889899800,12.826899658203125,1.2334747314453125,-0.3879547119140625,1.2769012451171875
1716758407900031500,12.837031494140625,1.6808929443359375,-0.5147247314453125,1.1618499755859375
1716758407910163500,12.84716357421875,1.948272705078125,-0.4795684814453125,0.963714599609375
1716758407920295200,12.857295166015625,2.07611083984375,-0.3666534423828125,0.6377410888671875
1716758407930427100,12.86742724609375,2.1346893310546875,-0.2249755859375,0.2073822021484375
1716758407940558800,12.877558837890625,2.1613311767578125,-0.0715789794921875,-0.2506866455078125
1716758407950690800,12.88769091796875,2.1602630615234375,0.0573272705078125,-0.6469573974609375
1716758407960822500,12.897822509765625,2.1591949462890625,0.2139129638671875,-0.9686737060546875
1716758407970954500,12.90795458984375,2.211395263671875,0.45892333984375,-1.261627197265625
1716758407981086200,12.918086181640625,2.3860931396484375,0.77850341796875,-1.54498291015625
1716758407991218000,12.928218017578125,2.7291107177734375,1.0235137939453125,-1.8027801513671875
1716758408001350000,12.938349853515625,3.1626739501953125,1.131103515625,-2.010498046875
1716758408011481600,12.948481689453125,3.55682373046875,1.095947265625,-2.103179931640625
1716758408021613600,12.958613525390625,3.81781005859375,0.8967437744140625,-2.0882720947265625
1716758408031745300,12.968745361328125,3.933929443359375,0.42803955078125,-1.9700164794921875
1716758408041877200,12.978877197265625,3.999969482421875,0.060516357421875,-1.79638671875
1716758408052009000,12.989009033203125,4.10650634765625,-0.0012664794921875,-1.70263671875
1716758408062141000,12.999140869140625,4.2673492431640625,0.2597198486328125,-1.75909423828125
1716758408072272600,13.009272705078125,4.4772186279296875,0.6602630615234375,-2.032867431640625
1716758408082404600,13.019404541015625,4.6146240234375,0.9468231201171875,-2.319427490234375
1716758408092536300,13.029536376953125,4.582672119140625,1.0469512939453125,-2.490936279296875
1716758408102668300,13.039668212890625,4.4516448974609375,0.9766387939453125,-2.5314178466796875
1716758408112800000,13.049800048828125,4.3291473388671875,0.82537841796875,-2.4270172119140625
1716758408122932000,13.059931884765625,4.2801361083984375,0.7380218505859375,-2.3471221923828125
1716758408133063700,13.070063720703125,4.2375335693359375,0.7380218505859375,-2.4536590576171875
1716758408143195600,13.080195556640625,4.1427154541015625,0.8157958984375,-2.56976318359375
1716758408153327400,13.090327392578125,4.0276641845703125,0.8669281005859375,-2.673095703125
1716758408163459300,13.100459228515625,3.92327880859375,0.9319000244140625,-2.69866943359375
1716758408173591000,13.110591064453125,3.84124755859375,0.9990081787109375,-2.6581878662109375
1716758408183723000,13.120722900390625,3.7847900390625,1.01605224609375,-2.572967529296875
1716758408193854700,13.130854736328125,3.7347259521484375,0.995819091796875,-2.4621734619140625
1716758408203986700,13.140986572265625,3.6761322021484375,0.9798431396484375,-2.399322509765625
1716758408214118400,13.151118408203125,3.6015625,0.9468231201171875,-2.4515228271484375
1716758408224250400,13.16125048828125,3.5419158935546875,0.8935546875,-2.5559234619140625
1716758408234382000,13.171382080078125,3.532318115234375,0.8520050048828125,-2.6933441162109375
1716758408244514000,13.18151416015625,3.5589599609375,0.9233856201171875,-2.83502197265625
1716758408254645800,13.191645751953125,3.5834503173828125,1.099151611328125,-2.97137451171875
1716758408264777700,13.20177783203125,3.5994415283203125,1.2173919677734375,-3.0811004638671875
1716758408274909400,13.211909423828125,3.55682373046875,1.2642669677734375,-3.06085205078125
1716758408285041400,13.22204150390625,3.4492340087890625,1.2855682373046875,-2.85845947265625
1716758408295173000,13.232173095703125,3.3256683349609375,1.2429656982421875,-2.6347503662109375
1716758408305305000,13.24230517578125,3.27239990234375,1.21099853515625,-2.46856689453125
1716758408315436800,13.252436767578125,3.2297821044921875,1.2205963134765625,-2.444061279296875
1716758408325568500,13.262568603515625,3.1264495849609375,1.32391357421875,-2.5516510009765625
1716758408335700500,13.272700439453125,3.0241851806640625,1.49969482421875,-2.777496337890625
1716758408345832200,13.282832275390625,2.895294189453125,1.872528076171875,-3.07257080078125
